timestamp,timestamp,penX,penY,robotHeading,heading,L_steps,R_steps,accX,accY,accZ,gyroX,gyroY,gyroZ,magX,magY,magZ,batt,isMoving,targetL,actualV,targetW,actualW
3701.0,3701.0,0.0,0.0,0.0,64.7,0,0,0.03,0.09,-0.99,3.85,-4.06,-2.8,-77.38,78.19,-48.36,0.0,False,0.0,0.0,0.0,0.0
3701.0,3701.0,0.0,0.0,0.0,64.7,0,0,0.03,0.09,-0.99,3.85,-4.06,-2.8,-77.38,78.19,-48.36,0.0,False,0.0,0.0,0.0,0.0
3701.0,3701.0,0.0,0.0,0.0,64.7,0,0,0.03,0.09,-0.99,3.85,-4.06,-2.8,-77.38,78.19,-48.36,0.0,False,0.0,0.0,0.0,0.0
3701.0,3701.0,0.0,0.0,0.0,64.7,0,0,0.03,0.09,-0.99,3.85,-4.06,-2.8,-77.38,78.19,-48.36,0.0,False,0.0,0.0,0.0,0.0
3721.0,3721.0,0.0,0.0,0.0,64.7,0,0,0.03,0.09,-1.0,3.85,-4.06,-2.73,-77.38,78.19,-48.36,0.0,False,0.0,0.0,0.0,0.0
3721.0,3721.0,0.0,0.0,0.0,64.7,0,0,0.03,0.09,-1.0,3.85,-4.06,-2.73,-77.38,78.19,-48.36,0.0,False,0.0,0.0,0.0,0.0
3721.0,3721.0,0.0,0.0,0.0,64.7,0,0,0.03,0.09,-1.0,3.85,-4.06,-2.73,-77.38,78.19,-48.36,0.0,False,0.0,0.0,0.0,0.0
3721.0,3721.0,0.0,0.0,0.0,64.7,0,0,0.03,0.09,-1.0,3.85,-4.06,-2.73,-77.38,78.19,-48.36,0.0,False,0.0,0.0,0.0,0.0
3741.0,3741.0,0.0,0.0,0.0,64.7,0,0,0.03,0.09,-0.99,3.78,-3.85,-2.87,-77.38,78.19,-48.36,0.0,False,0.0,0.0,0.0,0.0
3741.0,3741.0,0.0,0.0,0.0,64.7,0,0,0.03,0.09,-0.99,3.78,-3.85,-2.87,-77.38,78.19,-48.36,0.0,False,0.0,0.0,0.0,0.0
3741.0,3741.0,0.0,0.0,0.0,64.7,0,0,0.03,0.09,-0.99,3.78,-3.85,-2.87,-77.38,78.19,-48.36,0.0,False,0.0,0.0,0.0,0.0
3741.0,3741.0,0.0,0.0,0.0,64.7,0,0,0.03,0.09,-0.99,3.78,-3.85,-2.87,-77.38,78.19,-48.36,0.0,False,0.0,0.0,0.0,0.0
3761.0,3761.0,0.0,0.0,0.0,64.7,0,0,0.03,0.1,-0.99,3.92,-4.06,-2.59,-77.38,78.11,-48.13,0.0,False,0.0,0.0,0.0,0.0
3761.0,3761.0,0.0,0.0,0.0,64.7,0,0,0.03,0.1,-0.99,3.92,-4.06,-2.59,-77.38,78.11,-48.13,0.0,False,0.0,0.0,0.0,0.0
3761.0,3761.0,0.0,0.0,0.0,64.7,0,0,0.03,0.1,-0.99,3.92,-4.06,-2.59,-77.38,78.11,-48.13,0.0,False,0.0,0.0,0.0,0.0
3761.0,3761.0,0.0,0.0,0.0,64.7,0,0,0.03,0.1,-0.99,3.92,-4.06,-2.59,-77.38,78.11,-48.13,0.0,False,0.0,0.0,0.0,0.0
3761.0,3761.0,0.0,0.0,0.0,64.7,0,0,0.03,0.1,-0.99,3.92,-4.06,-2.59,-77.38,78.11,-48.13,0.0,False,0.0,0.0,0.0,0.0
3784.0,3784.0,0.0,0.0,0.0,64.86,0,0,0.03,0.09,-0.99,3.78,-4.13,-2.73,-77.73,78.11,-48.13,0.0,False,0.0,0.0,0.0,0.0
3784.0,3784.0,0.0,0.0,0.0,64.86,0,0,0.03,0.09,-0.99,3.78,-4.13,-2.73,-77.73,78.11,-48.13,0.0,False,0.0,0.0,0.0,0.0
3784.0,3784.0,0.0,0.0,0.0,64.86,0,0,0.03,0.09,-0.99,3.78,-4.13,-2.73,-77.73,78.11,-48.13,0.0,False,0.0,0.0,0.0,0.0
3784.0,3784.0,0.0,0.0,0.0,64.86,0,0,0.03,0.09,-0.99,3.78,-4.13,-2.73,-77.73,78.11,-48.13,0.0,False,0.0,0.0,0.0,0.0
3784.0,3784.0,0.0,0.0,0.0,64.86,0,0,0.03,0.09,-0.99,3.78,-4.13,-2.73,-77.73,78.11,-48.13,0.0,False,0.0,0.0,0.0,0.0
3806.0,3806.0,0.0,0.0,0.0,64.86,0,0,0.03,0.09,-0.99,3.78,-3.92,-2.59,-77.73,78.11,-48.13,0.0,False,0.0,0.0,0.0,0.0
3806.0,3806.0,0.0,0.0,0.0,64.86,0,0,0.03,0.09,-0.99,3.78,-3.92,-2.59,-77.73,78.11,-48.13,0.0,False,0.0,0.0,0.0,0.0
3806.0,3806.0,0.0,0.0,0.0,64.86,0,0,0.03,0.09,-0.99,3.78,-3.92,-2.59,-77.73,78.11,-48.13,0.0,False,0.0,0.0,0.0,0.0
3806.0,3806.0,0.0,0.0,0.0,64.86,0,0,0.03,0.09,-0.99,3.78,-3.92,-2.59,-77.73,78.11,-48.13,0.0,False,0.0,0.0,0.0,0.0
3826.0,3826.0,0.0,0.0,0.0,64.86,0,0,0.03,0.09,-1.0,3.85,-3.92,-2.8,-77.73,78.11,-48.13,0.0,False,0.0,0.0,0.0,0.0
3826.0,3826.0,0.0,0.0,0.0,64.86,0,0,0.03,0.09,-1.0,3.85,-3.92,-2.8,-77.73,78.11,-48.13,0.0,False,0.0,0.0,0.0,0.0
3826.0,3826.0,0.0,0.0,0.0,64.86,0,0,0.03,0.09,-1.0,3.85,-3.92,-2.8,-77.73,78.11,-48.13,0.0,False,0.0,0.0,0.0,0.0
3826.0,3826.0,0.0,0.0,0.0,64.86,0,0,0.03,0.09,-1.0,3.85,-3.92,-2.8,-77.73,78.11,-48.13,0.0,False,0.0,0.0,0.0,0.0
3846.0,3846.0,0.0,0.0,0.0,64.86,0,0,0.03,0.09,-1.0,3.71,-4.06,-2.8,-77.73,78.11,-48.13,0.0,False,0.0,0.0,0.0,0.0
3846.0,3846.0,0.0,0.0,0.0,64.86,0,0,0.03,0.09,-1.0,3.71,-4.06,-2.8,-77.73,78.11,-48.13,0.0,False,0.0,0.0,0.0,0.0
3846.0,3846.0,0.0,0.0,0.0,64.86,0,0,0.03,0.09,-1.0,3.71,-4.06,-2.8,-77.73,78.11,-48.13,0.0,False,0.0,0.0,0.0,0.0
3846.0,3846.0,0.0,0.0,0.0,64.86,0,0,0.03,0.09,-1.0,3.71,-4.06,-2.8,-77.73,78.11,-48.13,0.0,False,0.0,0.0,0.0,0.0
3866.0,3866.0,0.0,0.0,0.0,65.02,0,0,0.03,0.09,-1.0,3.71,-3.85,-2.73,-78.03,77.99,-48.25,0.0,False,0.0,0.0,0.0,0.0
3866.0,3866.0,0.0,0.0,0.0,65.02,0,0,0.03,0.09,-1.0,3.71,-3.85,-2.73,-78.03,77.99,-48.25,0.0,False,0.0,0.0,0.0,0.0
3866.0,3866.0,0.0,0.0,0.0,65.02,0,0,0.03,0.09,-1.0,3.71,-3.85,-2.73,-78.03,77.99,-48.25,0.0,False,0.0,0.0,0.0,0.0
3866.0,3866.0,0.0,0.0,0.0,65.02,0,0,0.03,0.09,-1.0,3.71,-3.85,-2.73,-78.03,77.99,-48.25,0.0,False,0.0,0.0,0.0,0.0
3886.0,3886.0,0.0,0.0,0.0,65.02,0,0,0.03,0.1,-0.99,3.85,-4.13,-2.8,-78.03,77.99,-48.25,0.0,False,0.0,0.0,0.0,0.0
3886.0,3886.0,0.0,0.0,0.0,65.02,0,0,0.03,0.1,-0.99,3.85,-4.13,-2.8,-78.03,77.99,-48.25,0.0,False,0.0,0.0,0.0,0.0
3886.0,3886.0,0.0,0.0,0.0,65.02,0,0,0.03,0.1,-0.99,3.85,-4.13,-2.8,-78.03,77.99,-48.25,0.0,False,0.0,0.0,0.0,0.0
3886.0,3886.0,0.0,0.0,0.0,65.02,0,0,0.03,0.1,-0.99,3.85,-4.13,-2.8,-78.03,77.99,-48.25,0.0,False,0.0,0.0,0.0,0.0
3886.0,3886.0,0.0,0.0,0.0,65.02,0,0,0.03,0.1,-0.99,3.85,-4.13,-2.8,-78.03,77.99,-48.25,0.0,False,0.0,0.0,0.0,0.0
3909.0,3909.0,0.0,0.0,0.0,65.02,0,0,0.03,0.09,-1.0,3.78,-3.85,-2.8,-78.03,77.99,-48.25,0.0,False,0.0,0.0,0.0,0.0
3909.0,3909.0,0.0,0.0,0.0,65.02,0,0,0.03,0.09,-1.0,3.78,-3.85,-2.8,-78.03,77.99,-48.25,0.0,False,0.0,0.0,0.0,0.0
3909.0,3909.0,0.0,0.0,0.0,65.02,0,0,0.03,0.09,-1.0,3.78,-3.85,-2.8,-78.03,77.99,-48.25,0.0,False,0.0,0.0,0.0,0.0
3909.0,3909.0,0.0,0.0,0.0,65.02,0,0,0.03,0.09,-1.0,3.78,-3.85,-2.8,-78.03,77.99,-48.25,0.0,False,0.0,0.0,0.0,0.0
3909.0,3909.0,0.0,0.0,0.0,65.02,0,0,0.03,0.09,-1.0,3.78,-3.85,-2.8,-78.03,77.99,-48.25,0.0,False,0.0,0.0,0.0,0.0
3932.0,3932.0,0.0,0.0,0.0,65.02,0,0,0.03,0.09,-1.0,3.85,-4.13,-2.94,-78.03,77.99,-48.25,0.0,False,0.0,0.0,0.0,0.0
3932.0,3932.0,0.0,0.0,0.0,65.02,0,0,0.03,0.09,-1.0,3.85,-4.13,-2.94,-78.03,77.99,-48.25,0.0,False,0.0,0.0,0.0,0.0
3932.0,3932.0,0.0,0.0,0.0,65.02,0,0,0.03,0.09,-1.0,3.85,-4.13,-2.94,-78.03,77.99,-48.25,0.0,False,0.0,0.0,0.0,0.0
3932.0,3932.0,0.0,0.0,0.0,65.02,0,0,0.03,0.09,-1.0,3.85,-4.13,-2.94,-78.03,77.99,-48.25,0.0,False,0.0,0.0,0.0,0.0
3932.0,3932.0,0.0,0.0,0.0,65.02,0,0,0.03,0.09,-1.0,3.85,-4.13,-2.94,-78.03,77.99,-48.25,0.0,False,0.0,0.0,0.0,0.0
3954.0,3954.0,0.0,0.0,0.0,65.02,0,0,0.03,0.09,-1.0,3.78,-4.2,-2.73,-78.03,77.99,-48.25,0.0,False,0.0,0.0,0.0,0.0
3954.0,3954.0,0.0,0.0,0.0,65.02,0,0,0.03,0.09,-1.0,3.78,-4.2,-2.73,-78.03,77.99,-48.25,0.0,False,0.0,0.0,0.0,0.0
3954.0,3954.0,0.0,0.0,0.0,65.02,0,0,0.03,0.09,-1.0,3.78,-4.2,-2.73,-78.03,77.99,-48.25,0.0,False,0.0,0.0,0.0,0.0
3954.0,3954.0,0.0,0.0,0.0,65.02,0,0,0.03,0.09,-1.0,3.78,-4.2,-2.73,-78.03,77.99,-48.25,0.0,False,0.0,0.0,0.0,0.0
3974.0,3974.0,0.0,0.0,0.0,64.84,0,0,0.03,0.09,-0.99,3.92,-3.99,-2.52,-77.51,77.95,-48.22,0.0,False,0.0,0.0,0.0,0.0
3974.0,3974.0,0.0,0.0,0.0,64.84,0,0,0.03,0.09,-0.99,3.92,-3.99,-2.52,-77.51,77.95,-48.22,0.0,False,0.0,0.0,0.0,0.0
3974.0,3974.0,0.0,0.0,0.0,64.84,0,0,0.03,0.09,-0.99,3.92,-3.99,-2.52,-77.51,77.95,-48.22,0.0,False,0.0,0.0,0.0,0.0
3974.0,3974.0,0.0,0.0,0.0,64.84,0,0,0.03,0.09,-0.99,3.92,-3.99,-2.52,-77.51,77.95,-48.22,0.0,False,0.0,0.0,0.0,0.0
3994.0,3994.0,0.0,0.0,0.0,64.84,0,0,0.03,0.09,-1.0,3.78,-3.92,-2.87,-77.51,77.95,-48.22,0.0,False,0.0,0.0,0.0,0.0
3994.0,3994.0,0.0,0.0,0.0,64.84,0,0,0.03,0.09,-1.0,3.78,-3.92,-2.87,-77.51,77.95,-48.22,0.0,False,0.0,0.0,0.0,0.0
3994.0,3994.0,0.0,0.0,0.0,64.84,0,0,0.03,0.09,-1.0,3.78,-3.92,-2.87,-77.51,77.95,-48.22,0.0,False,0.0,0.0,0.0,0.0
3994.0,3994.0,0.0,0.0,0.0,64.84,0,0,0.03,0.09,-1.0,3.78,-3.92,-2.87,-77.51,77.95,-48.22,0.0,False,0.0,0.0,0.0,0.0
4014.0,4014.0,0.0,0.0,0.0,64.84,0,0,0.03,0.09,-0.99,3.78,-3.99,-2.87,-77.51,77.95,-48.22,0.0,False,0.0,0.0,0.0,0.0
4014.0,4014.0,0.0,0.0,0.0,64.84,0,0,0.03,0.09,-0.99,3.78,-3.99,-2.87,-77.51,77.95,-48.22,0.0,False,0.0,0.0,0.0,0.0
4014.0,4014.0,0.0,0.0,0.0,64.84,0,0,0.03,0.09,-0.99,3.78,-3.99,-2.87,-77.51,77.95,-48.22,0.0,False,0.0,0.0,0.0,0.0
4014.0,4014.0,0.0,0.0,0.0,64.84,0,0,0.03,0.09,-0.99,3.78,-3.99,-2.87,-77.51,77.95,-48.22,0.0,False,0.0,0.0,0.0,0.0
4034.0,4034.0,0.0,0.0,0.0,64.84,0,0,0.03,0.09,-1.0,3.78,-4.06,-2.87,-77.51,77.95,-48.22,0.0,False,0.0,0.0,0.0,0.0
4034.0,4034.0,0.0,0.0,0.0,64.84,0,0,0.03,0.09,-1.0,3.78,-4.06,-2.87,-77.51,77.95,-48.22,0.0,False,0.0,0.0,0.0,0.0
4034.0,4034.0,0.0,0.0,0.0,64.84,0,0,0.03,0.09,-1.0,3.78,-4.06,-2.87,-77.51,77.95,-48.22,0.0,False,0.0,0.0,0.0,0.0
4034.0,4034.0,0.0,0.0,0.0,64.84,0,0,0.03,0.09,-1.0,3.78,-4.06,-2.87,-77.51,77.95,-48.22,0.0,False,0.0,0.0,0.0,0.0
4034.0,4034.0,0.0,0.0,0.0,64.84,0,0,0.03,0.09,-1.0,3.78,-4.06,-2.87,-77.51,77.95,-48.22,0.0,False,0.0,0.0,0.0,0.0
4056.0,4056.0,0.0,0.0,0.0,64.84,0,0,0.03,0.09,-0.99,3.92,-4.2,-2.8,-77.51,77.95,-48.22,0.0,False,0.0,0.0,0.0,0.0
4056.0,4056.0,0.0,0.0,0.0,64.84,0,0,0.03,0.09,-0.99,3.92,-4.2,-2.8,-77.51,77.95,-48.22,0.0,False,0.0,0.0,0.0,0.0
4056.0,4056.0,0.0,0.0,0.0,64.84,0,0,0.03,0.09,-0.99,3.92,-4.2,-2.8,-77.51,77.95,-48.22,0.0,False,0.0,0.0,0.0,0.0
4056.0,4056.0,0.0,0.0,0.0,64.84,0,0,0.03,0.09,-0.99,3.92,-4.2,-2.8,-77.51,77.95,-48.22,0.0,False,0.0,0.0,0.0,0.0
4076.0,4076.0,0.0,0.0,0.0,65.08,0,0,0.03,0.09,-1.0,3.99,-4.27,-2.8,-77.81,77.61,-48.17,0.0,False,0.0,0.0,0.0,0.0
4076.0,4076.0,0.0,0.0,0.0,65.08,0,0,0.03,0.09,-1.0,3.99,-4.27,-2.8,-77.81,77.61,-48.17,0.0,False,0.0,0.0,0.0,0.0
4076.0,4076.0,0.0,0.0,0.0,65.08,0,0,0.03,0.09,-1.0,3.99,-4.27,-2.8,-77.81,77.61,-48.17,0.0,False,0.0,0.0,0.0,0.0
4076.0,4076.0,0.0,0.0,0.0,65.08,0,0,0.03,0.09,-1.0,3.99,-4.27,-2.8,-77.81,77.61,-48.17,0.0,False,0.0,0.0,0.0,0.0
4096.0,4096.0,0.0,0.0,0.0,65.08,0,0,0.03,0.09,-0.99,3.85,-4.13,-2.73,-77.81,77.61,-48.17,0.0,False,0.0,0.0,0.0,0.0
4096.0,4096.0,0.0,0.0,0.0,65.08,0,0,0.03,0.09,-0.99,3.85,-4.13,-2.73,-77.81,77.61,-48.17,0.0,False,0.0,0.0,0.0,0.0
4096.0,4096.0,0.0,0.0,0.0,65.08,0,0,0.03,0.09,-0.99,3.85,-4.13,-2.73,-77.81,77.61,-48.17,0.0,False,0.0,0.0,0.0,0.0
4096.0,4096.0,0.0,0.0,0.0,65.08,0,0,0.03,0.09,-0.99,3.85,-4.13,-2.73,-77.81,77.61,-48.17,0.0,False,0.0,0.0,0.0,0.0
4096.0,4096.0,0.0,0.0,0.0,65.08,0,0,0.03,0.09,-0.99,3.85,-4.13,-2.73,-77.81,77.61,-48.17,0.0,False,0.0,0.0,0.0,0.0
4119.0,4119.0,0.0,0.0,0.0,65.08,0,0,0.03,0.09,-0.99,3.78,-4.06,-2.59,-77.81,77.61,-48.17,0.0,False,0.0,0.0,0.0,0.0
4119.0,4119.0,0.0,0.0,0.0,65.08,0,0,0.03,0.09,-0.99,3.78,-4.06,-2.59,-77.81,77.61,-48.17,0.0,False,0.0,0.0,0.0,0.0
4119.0,4119.0,0.0,0.0,0.0,65.08,0,0,0.03,0.09,-0.99,3.78,-4.06,-2.59,-77.81,77.61,-48.17,0.0,False,0.0,0.0,0.0,0.0
4119.0,4119.0,0.0,0.0,0.0,65.08,0,0,0.03,0.09,-0.99,3.78,-4.06,-2.59,-77.81,77.61,-48.17,0.0,False,0.0,0.0,0.0,0.0
4119.0,4119.0,0.0,0.0,0.0,65.08,0,0,0.03,0.09,-0.99,3.78,-4.06,-2.59,-77.81,77.61,-48.17,0.0,False,0.0,0.0,0.0,0.0
4142.0,4142.0,0.0,0.0,0.0,65.08,0,0,0.03,0.09,-0.99,3.71,-4.06,-2.73,-77.81,77.61,-48.17,0.0,False,0.0,0.0,0.0,0.0
4142.0,4142.0,0.0,0.0,0.0,65.08,0,0,0.03,0.09,-0.99,3.71,-4.06,-2.73,-77.81,77.61,-48.17,0.0,False,0.0,0.0,0.0,0.0
4142.0,4142.0,0.0,0.0,0.0,65.08,0,0,0.03,0.09,-0.99,3.71,-4.06,-2.73,-77.81,77.61,-48.17,0.0,False,0.0,0.0,0.0,0.0
4142.0,4142.0,0.0,0.0,0.0,65.08,0,0,0.03,0.09,-0.99,3.71,-4.06,-2.73,-77.81,77.61,-48.17,0.0,False,0.0,0.0,0.0,0.0
4142.0,4142.0,0.0,0.0,0.0,65.08,0,0,0.03,0.09,-0.99,3.71,-4.06,-2.73,-77.81,77.61,-48.17,0.0,False,0.0,0.0,0.0,0.0
4164.0,4164.0,0.0,0.0,0.0,64.73,0,0,0.03,0.09,-0.99,3.71,-3.99,-2.52,-77.27,78.0,-48.41,0.0,False,0.0,0.0,0.0,0.0
4164.0,4164.0,0.0,0.0,0.0,64.73,0,0,0.03,0.09,-0.99,3.71,-3.99,-2.52,-77.27,78.0,-48.41,0.0,False,0.0,0.0,0.0,0.0
4164.0,4164.0,0.0,0.0,0.0,64.73,0,0,0.03,0.09,-0.99,3.71,-3.99,-2.52,-77.27,78.0,-48.41,0.0,False,0.0,0.0,0.0,0.0
4164.0,4164.0,0.0,0.0,0.0,64.73,0,0,0.03,0.09,-0.99,3.71,-3.99,-2.52,-77.27,78.0,-48.41,0.0,False,0.0,0.0,0.0,0.0
4184.0,4184.0,0.0,0.0,0.0,64.73,0,0,0.03,0.09,-0.99,3.99,-4.27,-2.87,-77.27,78.0,-48.41,0.0,False,0.0,0.0,0.0,0.0
4184.0,4184.0,0.0,0.0,0.0,64.73,0,0,0.03,0.09,-0.99,3.99,-4.27,-2.87,-77.27,78.0,-48.41,0.0,False,0.0,0.0,0.0,0.0
4184.0,4184.0,0.0,0.0,0.0,64.73,0,0,0.03,0.09,-0.99,3.99,-4.27,-2.87,-77.27,78.0,-48.41,0.0,False,0.0,0.0,0.0,0.0
4184.0,4184.0,0.0,0.0,0.0,64.73,0,0,0.03,0.09,-0.99,3.99,-4.27,-2.87,-77.27,78.0,-48.41,0.0,False,0.0,0.0,0.0,0.0
4204.0,4204.0,0.0,0.0,0.0,64.73,0,0,0.03,0.09,-1.0,3.78,-3.99,-2.66,-77.27,78.0,-48.41,0.0,False,0.0,0.0,0.0,0.0
4204.0,4204.0,0.0,0.0,0.0,64.73,0,0,0.03,0.09,-1.0,3.78,-3.99,-2.66,-77.27,78.0,-48.41,0.0,False,0.0,0.0,0.0,0.0
4204.0,4204.0,0.0,0.0,0.0,64.73,0,0,0.03,0.09,-1.0,3.78,-3.99,-2.66,-77.27,78.0,-48.41,0.0,False,0.0,0.0,0.0,0.0
4204.0,4204.0,0.0,0.0,0.0,64.73,0,0,0.03,0.09,-1.0,3.78,-3.99,-2.66,-77.27,78.0,-48.41,0.0,False,0.0,0.0,0.0,0.0
4224.0,4224.0,0.0,0.0,0.0,64.73,0,0,0.03,0.09,-0.99,3.78,-4.2,-2.73,-77.27,78.0,-48.41,0.0,False,0.0,0.0,0.0,0.0
4224.0,4224.0,0.0,0.0,0.0,64.73,0,0,0.03,0.09,-0.99,3.78,-4.2,-2.73,-77.27,78.0,-48.41,0.0,False,0.0,0.0,0.0,0.0
4224.0,4224.0,0.0,0.0,0.0,64.73,0,0,0.03,0.09,-0.99,3.78,-4.2,-2.73,-77.27,78.0,-48.41,0.0,False,0.0,0.0,0.0,0.0
4224.0,4224.0,0.0,0.0,0.0,64.73,0,0,0.03,0.09,-0.99,3.78,-4.2,-2.73,-77.27,78.0,-48.41,0.0,False,0.0,0.0,0.0,0.0
4244.0,4244.0,0.0,0.0,0.0,64.73,0,0,0.03,0.1,-0.99,3.78,-4.2,-2.87,-77.27,78.0,-48.41,0.0,False,0.0,0.0,0.0,0.0
4244.0,4244.0,0.0,0.0,0.0,64.73,0,0,0.03,0.1,-0.99,3.78,-4.2,-2.87,-77.27,78.0,-48.41,0.0,False,0.0,0.0,0.0,0.0
4244.0,4244.0,0.0,0.0,0.0,64.73,0,0,0.03,0.1,-0.99,3.78,-4.2,-2.87,-77.27,78.0,-48.41,0.0,False,0.0,0.0,0.0,0.0
4244.0,4244.0,0.0,0.0,0.0,64.73,0,0,0.03,0.1,-0.99,3.78,-4.2,-2.87,-77.27,78.0,-48.41,0.0,False,0.0,0.0,0.0,0.0
4244.0,4244.0,0.0,0.0,0.0,64.73,0,0,0.03,0.1,-0.99,3.78,-4.2,-2.87,-77.27,78.0,-48.41,0.0,False,0.0,0.0,0.0,0.0
4267.0,4267.0,0.0,0.0,0.0,64.88,0,0,0.03,0.09,-0.99,3.78,-4.06,-2.73,-77.8,78.14,-48.33,0.0,False,0.0,0.0,0.0,0.0
4267.0,4267.0,0.0,0.0,0.0,64.88,0,0,0.03,0.09,-0.99,3.78,-4.06,-2.73,-77.8,78.14,-48.33,0.0,False,0.0,0.0,0.0,0.0
4267.0,4267.0,0.0,0.0,0.0,64.88,0,0,0.03,0.09,-0.99,3.78,-4.06,-2.73,-77.8,78.14,-48.33,0.0,False,0.0,0.0,0.0,0.0
4267.0,4267.0,0.0,0.0,0.0,64.88,0,0,0.03,0.09,-0.99,3.78,-4.06,-2.73,-77.8,78.14,-48.33,0.0,False,0.0,0.0,0.0,0.0
4267.0,4267.0,0.0,0.0,0.0,64.88,0,0,0.03,0.09,-0.99,3.78,-4.06,-2.73,-77.8,78.14,-48.33,0.0,False,0.0,0.0,0.0,0.0
4289.0,4289.0,0.0,0.0,0.0,64.88,0,0,0.03,0.1,-0.99,3.57,-3.92,-2.66,-77.8,78.14,-48.33,0.0,False,0.0,0.0,0.0,0.0
4289.0,4289.0,0.0,0.0,0.0,64.88,0,0,0.03,0.1,-0.99,3.57,-3.92,-2.66,-77.8,78.14,-48.33,0.0,False,0.0,0.0,0.0,0.0
4289.0,4289.0,0.0,0.0,0.0,64.88,0,0,0.03,0.1,-0.99,3.57,-3.92,-2.66,-77.8,78.14,-48.33,0.0,False,0.0,0.0,0.0,0.0
4289.0,4289.0,0.0,0.0,0.0,64.88,0,0,0.03,0.1,-0.99,3.57,-3.92,-2.66,-77.8,78.14,-48.33,0.0,False,0.0,0.0,0.0,0.0
4309.0,4309.0,0.0,0.0,0.0,64.88,0,0,0.03,0.09,-0.99,3.85,-3.92,-2.66,-77.8,78.14,-48.33,0.0,False,0.0,0.0,0.0,0.0
4309.0,4309.0,0.0,0.0,0.0,64.88,0,0,0.03,0.09,-0.99,3.85,-3.92,-2.66,-77.8,78.14,-48.33,0.0,False,0.0,0.0,0.0,0.0
4309.0,4309.0,0.0,0.0,0.0,64.88,0,0,0.03,0.09,-0.99,3.85,-3.92,-2.66,-77.8,78.14,-48.33,0.0,False,0.0,0.0,0.0,0.0
4309.0,4309.0,0.0,0.0,0.0,64.88,0,0,0.03,0.09,-0.99,3.85,-3.92,-2.66,-77.8,78.14,-48.33,0.0,False,0.0,0.0,0.0,0.0
4329.0,4329.0,0.0,0.0,0.0,64.88,0,0,0.02,0.09,-0.99,3.78,-4.13,-2.66,-77.8,78.14,-48.33,0.0,False,0.0,0.0,0.0,0.0
4329.0,4329.0,0.0,0.0,0.0,64.88,0,0,0.02,0.09,-0.99,3.78,-4.13,-2.66,-77.8,78.14,-48.33,0.0,False,0.0,0.0,0.0,0.0
4329.0,4329.0,0.0,0.0,0.0,64.88,0,0,0.02,0.09,-0.99,3.78,-4.13,-2.66,-77.8,78.14,-48.33,0.0,False,0.0,0.0,0.0,0.0
4329.0,4329.0,0.0,0.0,0.0,64.88,0,0,0.02,0.09,-0.99,3.78,-4.13,-2.66,-77.8,78.14,-48.33,0.0,False,0.0,0.0,0.0,0.0
4349.0,4349.0,0.0,0.0,0.0,64.88,0,0,0.03,0.09,-0.99,3.92,-3.92,-2.66,-77.8,78.14,-48.33,0.0,False,0.0,0.0,0.0,0.0
4349.0,4349.0,0.0,0.0,0.0,64.88,0,0,0.03,0.09,-0.99,3.92,-3.92,-2.66,-77.8,78.14,-48.33,0.0,False,0.0,0.0,0.0,0.0
4349.0,4349.0,0.0,0.0,0.0,64.88,0,0,0.03,0.09,-0.99,3.92,-3.92,-2.66,-77.8,78.14,-48.33,0.0,False,0.0,0.0,0.0,0.0
4349.0,4349.0,0.0,0.0,0.0,64.88,0,0,0.03,0.09,-0.99,3.92,-3.92,-2.66,-77.8,78.14,-48.33,0.0,False,0.0,0.0,0.0,0.0
4349.0,4349.0,0.0,0.0,0.0,64.88,0,0,0.03,0.09,-0.99,3.92,-3.92,-2.66,-77.8,78.14,-48.33,0.0,False,0.0,0.0,0.0,0.0
4371.0,4371.0,0.0,0.0,0.0,64.77,0,0,0.04,0.09,-1.0,3.99,-3.92,-2.66,-77.45,78.08,-48.82,0.0,False,0.0,0.0,0.0,0.0
4371.0,4371.0,0.0,0.0,0.0,64.77,0,0,0.04,0.09,-1.0,3.99,-3.92,-2.66,-77.45,78.08,-48.82,0.0,False,0.0,0.0,0.0,0.0
4371.0,4371.0,0.0,0.0,0.0,64.77,0,0,0.04,0.09,-1.0,3.99,-3.92,-2.66,-77.45,78.08,-48.82,0.0,False,0.0,0.0,0.0,0.0
4371.0,4371.0,0.0,0.0,0.0,64.77,0,0,0.04,0.09,-1.0,3.99,-3.92,-2.66,-77.45,78.08,-48.82,0.0,False,0.0,0.0,0.0,0.0
4391.0,4391.0,0.0,0.0,0.0,64.77,0,0,0.03,0.1,-1.0,3.64,-4.06,-2.87,-77.45,78.08,-48.82,0.0,False,0.0,0.0,0.0,0.0
4391.0,4391.0,0.0,0.0,0.0,64.77,0,0,0.03,0.1,-1.0,3.64,-4.06,-2.87,-77.45,78.08,-48.82,0.0,False,0.0,0.0,0.0,0.0
4391.0,4391.0,0.0,0.0,0.0,64.77,0,0,0.03,0.1,-1.0,3.64,-4.06,-2.87,-77.45,78.08,-48.82,0.0,False,0.0,0.0,0.0,0.0
4391.0,4391.0,0.0,0.0,0.0,64.77,0,0,0.03,0.1,-1.0,3.64,-4.06,-2.87,-77.45,78.08,-48.82,0.0,False,0.0,0.0,0.0,0.0
4411.0,4411.0,0.0,0.0,0.0,64.77,0,0,0.03,0.09,-0.99,3.78,-3.92,-2.73,-77.45,78.08,-48.82,0.0,False,0.0,0.0,0.0,0.0
4411.0,4411.0,0.0,0.0,0.0,64.77,0,0,0.03,0.09,-0.99,3.78,-3.92,-2.73,-77.45,78.08,-48.82,0.0,False,0.0,0.0,0.0,0.0
4411.0,4411.0,0.0,0.0,0.0,64.77,0,0,0.03,0.09,-0.99,3.78,-3.92,-2.73,-77.45,78.08,-48.82,0.0,False,0.0,0.0,0.0,0.0
4411.0,4411.0,0.0,0.0,0.0,64.77,0,0,0.03,0.09,-0.99,3.78,-3.92,-2.73,-77.45,78.08,-48.82,0.0,False,0.0,0.0,0.0,0.0
4411.0,4411.0,0.0,0.0,0.0,64.77,0,0,0.03,0.09,-0.99,3.78,-3.92,-2.73,-77.45,78.08,-48.82,0.0,False,0.0,0.0,0.0,0.0
4434.0,4434.0,0.0,0.0,0.0,64.77,0,0,0.03,0.09,-1.0,3.85,-4.2,-2.73,-77.45,78.08,-48.82,0.0,False,0.0,0.0,0.0,0.0
4434.0,4434.0,0.0,0.0,0.0,64.77,0,0,0.03,0.09,-1.0,3.85,-4.2,-2.73,-77.45,78.08,-48.82,0.0,False,0.0,0.0,0.0,0.0
4434.0,4434.0,0.0,0.0,0.0,64.77,0,0,0.03,0.09,-1.0,3.85,-4.2,-2.73,-77.45,78.08,-48.82,0.0,False,0.0,0.0,0.0,0.0
4434.0,4434.0,0.0,0.0,0.0,64.77,0,0,0.03,0.09,-1.0,3.85,-4.2,-2.73,-77.45,78.08,-48.82,0.0,False,0.0,0.0,0.0,0.0
4434.0,4434.0,0.0,0.0,0.0,64.77,0,0,0.03,0.09,-1.0,3.85,-4.2,-2.73,-77.45,78.08,-48.82,0.0,False,0.0,0.0,0.0,0.0
4457.0,4457.0,0.0,0.0,0.0,64.77,0,0,0.03,0.09,-0.99,3.85,-3.99,-2.8,-77.32,78.06,-48.71,0.0,False,0.0,0.0,0.0,0.0
4457.0,4457.0,0.0,0.0,0.0,64.77,0,0,0.03,0.09,-0.99,3.85,-3.99,-2.8,-77.32,78.06,-48.71,0.0,False,0.0,0.0,0.0,0.0
4457.0,4457.0,0.0,0.0,0.0,64.77,0,0,0.03,0.09,-0.99,3.85,-3.99,-2.8,-77.32,78.06,-48.71,0.0,False,0.0,0.0,0.0,0.0
4457.0,4457.0,0.0,0.0,0.0,64.77,0,0,0.03,0.09,-0.99,3.85,-3.99,-2.8,-77.32,78.06,-48.71,0.0,False,0.0,0.0,0.0,0.0
4457.0,4457.0,0.0,0.0,0.0,64.77,0,0,0.03,0.09,-0.99,3.85,-3.99,-2.8,-77.32,78.06,-48.71,0.0,False,0.0,0.0,0.0,0.0
4479.0,4479.0,0.0,0.0,0.0,64.73,0,0,0.03,0.09,-0.99,3.78,-4.13,-2.87,-77.32,78.06,-48.71,0.0,False,0.0,0.0,0.0,0.0
4479.0,4479.0,0.0,0.0,0.0,64.73,0,0,0.03,0.09,-0.99,3.78,-4.13,-2.87,-77.32,78.06,-48.71,0.0,False,0.0,0.0,0.0,0.0
4479.0,4479.0,0.0,0.0,0.0,64.73,0,0,0.03,0.09,-0.99,3.78,-4.13,-2.87,-77.32,78.06,-48.71,0.0,False,0.0,0.0,0.0,0.0
4479.0,4479.0,0.0,0.0,0.0,64.73,0,0,0.03,0.09,-0.99,3.78,-4.13,-2.87,-77.32,78.06,-48.71,0.0,False,0.0,0.0,0.0,0.0
4499.0,4499.0,0.0,0.0,0.0,64.73,0,0,0.03,0.09,-1.0,3.78,-4.2,-2.73,-77.32,78.06,-48.71,0.0,False,0.0,0.0,0.0,0.0
4499.0,4499.0,0.0,0.0,0.0,64.73,0,0,0.03,0.09,-1.0,3.78,-4.2,-2.73,-77.32,78.06,-48.71,0.0,False,0.0,0.0,0.0,0.0
4499.0,4499.0,0.0,0.0,0.0,64.73,0,0,0.03,0.09,-1.0,3.78,-4.2,-2.73,-77.32,78.06,-48.71,0.0,False,0.0,0.0,0.0,0.0
4499.0,4499.0,0.0,0.0,0.0,64.73,0,0,0.03,0.09,-1.0,3.78,-4.2,-2.73,-77.32,78.06,-48.71,0.0,False,0.0,0.0,0.0,0.0
4519.0,4519.0,0.0,0.0,0.0,64.73,0,0,0.03,0.1,-0.99,3.92,-4.13,-2.8,-77.32,78.06,-48.71,0.0,False,0.0,0.0,0.0,0.0
4519.0,4519.0,0.0,0.0,0.0,64.73,0,0,0.03,0.1,-0.99,3.92,-4.13,-2.8,-77.32,78.06,-48.71,0.0,False,0.0,0.0,0.0,0.0
4519.0,4519.0,0.0,0.0,0.0,64.73,0,0,0.03,0.1,-0.99,3.92,-4.13,-2.8,-77.32,78.06,-48.71,0.0,False,0.0,0.0,0.0,0.0
4519.0,4519.0,0.0,0.0,0.0,64.73,0,0,0.03,0.1,-0.99,3.92,-4.13,-2.8,-77.32,78.06,-48.71,0.0,False,0.0,0.0,0.0,0.0
4539.0,4539.0,0.0,0.0,0.0,64.73,0,0,0.03,0.09,-0.99,3.85,-3.92,-2.87,-77.32,78.06,-48.71,0.0,False,0.0,0.0,0.0,0.0
4539.0,4539.0,0.0,0.0,0.0,64.73,0,0,0.03,0.09,-0.99,3.85,-3.92,-2.87,-77.32,78.06,-48.71,0.0,False,0.0,0.0,0.0,0.0
4539.0,4539.0,0.0,0.0,0.0,64.73,0,0,0.03,0.09,-0.99,3.85,-3.92,-2.87,-77.32,78.06,-48.71,0.0,False,0.0,0.0,0.0,0.0
4539.0,4539.0,0.0,0.0,0.0,64.73,0,0,0.03,0.09,-0.99,3.85,-3.92,-2.87,-77.32,78.06,-48.71,0.0,False,0.0,0.0,0.0,0.0
4559.0,4559.0,0.0,0.0,0.0,64.65,0,0,0.03,0.09,-0.99,3.78,-4.13,-2.59,-77.57,78.52,-48.11,0.0,False,0.0,0.0,0.0,0.0
4559.0,4559.0,0.0,0.0,0.0,64.65,0,0,0.03,0.09,-0.99,3.78,-4.13,-2.59,-77.57,78.52,-48.11,0.0,False,0.0,0.0,0.0,0.0
4559.0,4559.0,0.0,0.0,0.0,64.65,0,0,0.03,0.09,-0.99,3.78,-4.13,-2.59,-77.57,78.52,-48.11,0.0,False,0.0,0.0,0.0,0.0
4559.0,4559.0,0.0,0.0,0.0,64.65,0,0,0.03,0.09,-0.99,3.78,-4.13,-2.59,-77.57,78.52,-48.11,0.0,False,0.0,0.0,0.0,0.0
4559.0,4559.0,0.0,0.0,0.0,64.65,0,0,0.03,0.09,-0.99,3.78,-4.13,-2.59,-77.57,78.52,-48.11,0.0,False,0.0,0.0,0.0,0.0
4582.0,4582.0,0.0,0.0,0.0,64.65,0,0,0.03,0.09,-0.99,3.85,-4.06,-2.66,-77.57,78.52,-48.11,0.0,False,0.0,0.0,0.0,0.0
4582.0,4582.0,0.0,0.0,0.0,64.65,0,0,0.03,0.09,-0.99,3.85,-4.06,-2.66,-77.57,78.52,-48.11,0.0,False,0.0,0.0,0.0,0.0
4582.0,4582.0,0.0,0.0,0.0,64.65,0,0,0.03,0.09,-0.99,3.85,-4.06,-2.66,-77.57,78.52,-48.11,0.0,False,0.0,0.0,0.0,0.0
4582.0,4582.0,0.0,0.0,0.0,64.65,0,0,0.03,0.09,-0.99,3.85,-4.06,-2.66,-77.57,78.52,-48.11,0.0,False,0.0,0.0,0.0,0.0
4582.0,4582.0,0.0,0.0,0.0,64.65,0,0,0.03,0.09,-0.99,3.85,-4.06,-2.66,-77.57,78.52,-48.11,0.0,False,0.0,0.0,0.0,0.0
4604.0,4604.0,0.0,0.0,0.0,64.65,0,0,0.03,0.09,-0.99,3.78,-4.06,-2.8,-77.57,78.52,-48.11,0.0,False,0.0,0.0,0.0,0.0
4604.0,4604.0,0.0,0.0,0.0,64.65,0,0,0.03,0.09,-0.99,3.78,-4.06,-2.8,-77.57,78.52,-48.11,0.0,False,0.0,0.0,0.0,0.0
4604.0,4604.0,0.0,0.0,0.0,64.65,0,0,0.03,0.09,-0.99,3.78,-4.06,-2.8,-77.57,78.52,-48.11,0.0,False,0.0,0.0,0.0,0.0
4604.0,4604.0,0.0,0.0,0.0,64.65,0,0,0.03,0.09,-0.99,3.78,-4.06,-2.8,-77.57,78.52,-48.11,0.0,False,0.0,0.0,0.0,0.0
4624.0,4624.0,0.0,0.0,0.0,64.65,0,0,0.03,0.09,-0.99,3.71,-4.13,-2.66,-77.57,78.52,-48.11,0.0,False,0.0,0.0,0.0,0.0
4624.0,4624.0,0.0,0.0,0.0,64.65,0,0,0.03,0.09,-0.99,3.71,-4.13,-2.66,-77.57,78.52,-48.11,0.0,False,0.0,0.0,0.0,0.0
4624.0,4624.0,0.0,0.0,0.0,64.65,0,0,0.03,0.09,-0.99,3.71,-4.13,-2.66,-77.57,78.52,-48.11,0.0,False,0.0,0.0,0.0,0.0
4624.0,4624.0,0.0,0.0,0.0,64.65,0,0,0.03,0.09,-0.99,3.71,-4.13,-2.66,-77.57,78.52,-48.11,0.0,False,0.0,0.0,0.0,0.0
4644.0,4644.0,0.0,0.0,0.0,64.65,0,0,0.03,0.1,-0.99,3.64,-3.99,-2.8,-77.57,78.52,-48.11,0.0,False,0.0,0.0,0.0,0.0
4644.0,4644.0,0.0,0.0,0.0,64.65,0,0,0.03,0.1,-0.99,3.64,-3.99,-2.8,-77.57,78.52,-48.11,0.0,False,0.0,0.0,0.0,0.0
4644.0,4644.0,0.0,0.0,0.0,64.65,0,0,0.03,0.1,-0.99,3.64,-3.99,-2.8,-77.57,78.52,-48.11,0.0,False,0.0,0.0,0.0,0.0
4644.0,4644.0,0.0,0.0,0.0,64.65,0,0,0.03,0.1,-0.99,3.64,-3.99,-2.8,-77.57,78.52,-48.11,0.0,False,0.0,0.0,0.0,0.0
4664.0,4664.0,0.0,0.0,0.0,64.57,0,0,0.03,0.09,-1.0,3.71,-4.41,-2.87,-77.19,78.35,-48.11,0.0,False,0.0,0.0,0.0,0.0
4664.0,4664.0,0.0,0.0,0.0,64.57,0,0,0.03,0.09,-1.0,3.71,-4.41,-2.87,-77.19,78.35,-48.11,0.0,False,0.0,0.0,0.0,0.0
4664.0,4664.0,0.0,0.0,0.0,64.57,0,0,0.03,0.09,-1.0,3.71,-4.41,-2.87,-77.19,78.35,-48.11,0.0,False,0.0,0.0,0.0,0.0
4664.0,4664.0,0.0,0.0,0.0,64.57,0,0,0.03,0.09,-1.0,3.71,-4.41,-2.87,-77.19,78.35,-48.11,0.0,False,0.0,0.0,0.0,0.0
4664.0,4664.0,0.0,0.0,0.0,64.57,0,0,0.03,0.09,-1.0,3.71,-4.41,-2.87,-77.19,78.35,-48.11,0.0,False,0.0,0.0,0.0,0.0
4686.0,4686.0,0.0,0.0,0.0,64.57,0,0,0.03,0.09,-0.99,3.78,-4.2,-2.66,-77.19,78.35,-48.11,0.0,False,0.0,0.0,0.0,0.0
4686.0,4686.0,0.0,0.0,0.0,64.57,0,0,0.03,0.09,-0.99,3.78,-4.2,-2.66,-77.19,78.35,-48.11,0.0,False,0.0,0.0,0.0,0.0
4686.0,4686.0,0.0,0.0,0.0,64.57,0,0,0.03,0.09,-0.99,3.78,-4.2,-2.66,-77.19,78.35,-48.11,0.0,False,0.0,0.0,0.0,0.0
4686.0,4686.0,0.0,0.0,0.0,64.57,0,0,0.03,0.09,-0.99,3.78,-4.2,-2.66,-77.19,78.35,-48.11,0.0,False,0.0,0.0,0.0,0.0
4706.0,4706.0,0.0,0.0,0.0,64.57,0,0,0.03,0.09,-0.99,3.71,-3.85,-2.8,-77.19,78.35,-48.11,0.0,False,0.0,0.0,0.0,0.0
4706.0,4706.0,0.0,0.0,0.0,64.57,0,0,0.03,0.09,-0.99,3.71,-3.85,-2.8,-77.19,78.35,-48.11,0.0,False,0.0,0.0,0.0,0.0
4706.0,4706.0,0.0,0.0,0.0,64.57,0,0,0.03,0.09,-0.99,3.71,-3.85,-2.8,-77.19,78.35,-48.11,0.0,False,0.0,0.0,0.0,0.0
4706.0,4706.0,0.0,0.0,0.0,64.57,0,0,0.03,0.09,-0.99,3.71,-3.85,-2.8,-77.19,78.35,-48.11,0.0,False,0.0,0.0,0.0,0.0
4726.0,4726.0,0.0,0.0,0.0,64.57,0,0,0.03,0.09,-0.99,3.64,-3.99,-2.8,-77.19,78.35,-48.11,0.0,False,0.0,0.0,0.0,0.0
4726.0,4726.0,0.0,0.0,0.0,64.57,0,0,0.03,0.09,-0.99,3.64,-3.99,-2.8,-77.19,78.35,-48.11,0.0,False,0.0,0.0,0.0,0.0
4726.0,4726.0,0.0,0.0,0.0,64.57,0,0,0.03,0.09,-0.99,3.64,-3.99,-2.8,-77.19,78.35,-48.11,0.0,False,0.0,0.0,0.0,0.0
4726.0,4726.0,0.0,0.0,0.0,64.57,0,0,0.03,0.09,-0.99,3.64,-3.99,-2.8,-77.19,78.35,-48.11,0.0,False,0.0,0.0,0.0,0.0
4726.0,4726.0,0.0,0.0,0.0,64.57,0,0,0.03,0.09,-0.99,3.64,-3.99,-2.8,-77.19,78.35,-48.11,0.0,False,0.0,0.0,0.0,0.0
4749.0,4749.0,0.0,0.0,0.0,64.57,0,0,0.03,0.09,-0.99,3.71,-3.99,-2.87,-77.61,78.19,-49.04,0.0,False,0.0,0.0,0.0,0.0
4749.0,4749.0,0.0,0.0,0.0,64.57,0,0,0.03,0.09,-0.99,3.71,-3.99,-2.87,-77.61,78.19,-49.04,0.0,False,0.0,0.0,0.0,0.0
4749.0,4749.0,0.0,0.0,0.0,64.57,0,0,0.03,0.09,-0.99,3.71,-3.99,-2.87,-77.61,78.19,-49.04,0.0,False,0.0,0.0,0.0,0.0
4749.0,4749.0,0.0,0.0,0.0,64.57,0,0,0.03,0.09,-0.99,3.71,-3.99,-2.87,-77.61,78.19,-49.04,0.0,False,0.0,0.0,0.0,0.0
4749.0,4749.0,0.0,0.0,0.0,64.57,0,0,0.03,0.09,-0.99,3.71,-3.99,-2.87,-77.61,78.19,-49.04,0.0,False,0.0,0.0,0.0,0.0
4772.0,4772.0,0.0,0.0,0.0,64.79,0,0,0.03,0.1,-0.99,3.78,-4.06,-2.73,-77.61,78.19,-49.04,0.0,False,0.0,0.0,0.0,0.0
4772.0,4772.0,0.0,0.0,0.0,64.79,0,0,0.03,0.1,-0.99,3.78,-4.06,-2.73,-77.61,78.19,-49.04,0.0,False,0.0,0.0,0.0,0.0
4772.0,4772.0,0.0,0.0,0.0,64.79,0,0,0.03,0.1,-0.99,3.78,-4.06,-2.73,-77.61,78.19,-49.04,0.0,False,0.0,0.0,0.0,0.0
4772.0,4772.0,0.0,0.0,0.0,64.79,0,0,0.03,0.1,-0.99,3.78,-4.06,-2.73,-77.61,78.19,-49.04,0.0,False,0.0,0.0,0.0,0.0
4772.0,4772.0,0.0,0.0,0.0,64.79,0,0,0.03,0.1,-0.99,3.78,-4.06,-2.73,-77.61,78.19,-49.04,0.0,False,0.0,0.0,0.0,0.0
4794.0,4794.0,0.0,0.0,0.0,64.79,0,0,0.03,0.09,-0.99,3.64,-3.99,-2.87,-77.61,78.19,-49.04,0.0,False,0.0,0.0,0.0,0.0
4794.0,4794.0,0.0,0.0,0.0,64.79,0,0,0.03,0.09,-0.99,3.64,-3.99,-2.87,-77.61,78.19,-49.04,0.0,False,0.0,0.0,0.0,0.0
4794.0,4794.0,0.0,0.0,0.0,64.79,0,0,0.03,0.09,-0.99,3.64,-3.99,-2.87,-77.61,78.19,-49.04,0.0,False,0.0,0.0,0.0,0.0
4794.0,4794.0,0.0,0.0,0.0,64.79,0,0,0.03,0.09,-0.99,3.64,-3.99,-2.87,-77.61,78.19,-49.04,0.0,False,0.0,0.0,0.0,0.0
4814.0,4814.0,0.0,0.0,0.0,64.79,0,0,0.03,0.09,-1.0,3.71,-4.06,-2.73,-77.61,78.19,-49.04,0.0,False,0.0,0.0,0.0,0.0
4814.0,4814.0,0.0,0.0,0.0,64.79,0,0,0.03,0.09,-1.0,3.71,-4.06,-2.73,-77.61,78.19,-49.04,0.0,False,0.0,0.0,0.0,0.0
4814.0,4814.0,0.0,0.0,0.0,64.79,0,0,0.03,0.09,-1.0,3.71,-4.06,-2.73,-77.61,78.19,-49.04,0.0,False,0.0,0.0,0.0,0.0
4814.0,4814.0,0.0,0.0,0.0,64.79,0,0,0.03,0.09,-1.0,3.71,-4.06,-2.73,-77.61,78.19,-49.04,0.0,False,0.0,0.0,0.0,0.0
4834.0,4834.0,0.0,0.0,0.0,64.79,0,0,0.03,0.09,-1.0,3.85,-4.13,-2.59,-77.61,78.19,-49.04,0.0,False,0.0,0.0,0.0,0.0
4834.0,4834.0,0.0,0.0,0.0,64.79,0,0,0.03,0.09,-1.0,3.85,-4.13,-2.59,-77.61,78.19,-49.04,0.0,False,0.0,0.0,0.0,0.0
4834.0,4834.0,0.0,0.0,0.0,64.79,0,0,0.03,0.09,-1.0,3.85,-4.13,-2.59,-77.61,78.19,-49.04,0.0,False,0.0,0.0,0.0,0.0
4834.0,4834.0,0.0,0.0,0.0,64.79,0,0,0.03,0.09,-1.0,3.85,-4.13,-2.59,-77.61,78.19,-49.04,0.0,False,0.0,0.0,0.0,0.0
4854.0,4854.0,0.0,0.0,0.0,64.64,0,0,0.03,0.08,-0.99,3.92,-3.85,-2.66,-77.19,78.15,-48.22,0.0,False,0.0,0.0,0.0,0.0
4854.0,4854.0,0.0,0.0,0.0,64.64,0,0,0.03,0.08,-0.99,3.92,-3.85,-2.66,-77.19,78.15,-48.22,0.0,False,0.0,0.0,0.0,0.0
4854.0,4854.0,0.0,0.0,0.0,64.64,0,0,0.03,0.08,-0.99,3.92,-3.85,-2.66,-77.19,78.15,-48.22,0.0,False,0.0,0.0,0.0,0.0
4854.0,4854.0,0.0,0.0,0.0,64.64,0,0,0.03,0.08,-0.99,3.92,-3.85,-2.66,-77.19,78.15,-48.22,0.0,False,0.0,0.0,0.0,0.0
4854.0,4854.0,0.0,0.0,0.0,64.64,0,0,0.03,0.08,-0.99,3.92,-3.85,-2.66,-77.19,78.15,-48.22,0.0,False,0.0,0.0,0.0,0.0
4877.0,4877.0,0.0,0.0,0.0,64.64,0,0,0.03,0.09,-0.99,3.85,-3.99,-2.8,-77.19,78.15,-48.22,0.0,False,0.0,0.0,0.0,0.0
4877.0,4877.0,0.0,0.0,0.0,64.64,0,0,0.03,0.09,-0.99,3.85,-3.99,-2.8,-77.19,78.15,-48.22,0.0,False,0.0,0.0,0.0,0.0
4877.0,4877.0,0.0,0.0,0.0,64.64,0,0,0.03,0.09,-0.99,3.85,-3.99,-2.8,-77.19,78.15,-48.22,0.0,False,0.0,0.0,0.0,0.0
4877.0,4877.0,0.0,0.0,0.0,64.64,0,0,0.03,0.09,-0.99,3.85,-3.99,-2.8,-77.19,78.15,-48.22,0.0,False,0.0,0.0,0.0,0.0
4877.0,4877.0,0.0,0.0,0.0,64.64,0,0,0.03,0.09,-0.99,3.85,-3.99,-2.8,-77.19,78.15,-48.22,0.0,False,0.0,0.0,0.0,0.0
4899.0,4899.0,0.0,0.0,0.0,64.64,0,0,0.03,0.1,-1.0,3.78,-4.06,-2.8,-77.19,78.15,-48.22,0.0,False,0.0,0.0,0.0,0.0
4899.0,4899.0,0.0,0.0,0.0,64.64,0,0,0.03,0.1,-1.0,3.78,-4.06,-2.8,-77.19,78.15,-48.22,0.0,False,0.0,0.0,0.0,0.0
4899.0,4899.0,0.0,0.0,0.0,64.64,0,0,0.03,0.1,-1.0,3.78,-4.06,-2.8,-77.19,78.15,-48.22,0.0,False,0.0,0.0,0.0,0.0
4899.0,4899.0,0.0,0.0,0.0,64.64,0,0,0.03,0.1,-1.0,3.78,-4.06,-2.8,-77.19,78.15,-48.22,0.0,False,0.0,0.0,0.0,0.0
4919.0,4919.0,0.0,0.0,0.0,64.64,0,0,0.03,0.09,-1.0,3.85,-4.13,-2.87,-77.19,78.15,-48.22,0.0,False,0.0,0.0,0.0,0.0
4919.0,4919.0,0.0,0.0,0.0,64.64,0,0,0.03,0.09,-1.0,3.85,-4.13,-2.87,-77.19,78.15,-48.22,0.0,False,0.0,0.0,0.0,0.0
4919.0,4919.0,0.0,0.0,0.0,64.64,0,0,0.03,0.09,-1.0,3.85,-4.13,-2.87,-77.19,78.15,-48.22,0.0,False,0.0,0.0,0.0,0.0
4919.0,4919.0,0.0,0.0,0.0,64.64,0,0,0.03,0.09,-1.0,3.85,-4.13,-2.87,-77.19,78.15,-48.22,0.0,False,0.0,0.0,0.0,0.0
4939.0,4939.0,0.0,0.0,0.0,64.64,0,0,0.03,0.09,-0.99,3.78,-3.92,-2.73,-77.19,78.15,-48.22,0.0,False,0.0,0.0,0.0,0.0
4939.0,4939.0,0.0,0.0,0.0,64.64,0,0,0.03,0.09,-0.99,3.78,-3.92,-2.73,-77.19,78.15,-48.22,0.0,False,0.0,0.0,0.0,0.0
4939.0,4939.0,0.0,0.0,0.0,64.64,0,0,0.03,0.09,-0.99,3.78,-3.92,-2.73,-77.19,78.15,-48.22,0.0,False,0.0,0.0,0.0,0.0
4939.0,4939.0,0.0,0.0,0.0,64.64,0,0,0.03,0.09,-0.99,3.78,-3.92,-2.73,-77.19,78.15,-48.22,0.0,False,0.0,0.0,0.0,0.0
4959.0,4959.0,0.0,0.0,0.0,64.53,0,0,0.03,0.1,-1.0,3.78,-4.13,-2.73,-77.59,78.88,-49.02,0.0,False,0.0,0.0,0.0,0.0
4959.0,4959.0,0.0,0.0,0.0,64.53,0,0,0.03,0.1,-1.0,3.78,-4.13,-2.73,-77.59,78.88,-49.02,0.0,False,0.0,0.0,0.0,0.0
4959.0,4959.0,0.0,0.0,0.0,64.53,0,0,0.03,0.1,-1.0,3.78,-4.13,-2.73,-77.59,78.88,-49.02,0.0,False,0.0,0.0,0.0,0.0
4959.0,4959.0,0.0,0.0,0.0,64.53,0,0,0.03,0.1,-1.0,3.78,-4.13,-2.73,-77.59,78.88,-49.02,0.0,False,0.0,0.0,0.0,0.0
4979.0,4979.0,0.0,0.0,0.0,64.53,0,0,0.03,0.1,-0.99,3.64,-4.06,-2.94,-77.59,78.88,-49.02,0.0,False,0.0,0.0,0.0,0.0
4979.0,4979.0,0.0,0.0,0.0,64.53,0,0,0.03,0.1,-0.99,3.64,-4.06,-2.94,-77.59,78.88,-49.02,0.0,False,0.0,0.0,0.0,0.0
4979.0,4979.0,0.0,0.0,0.0,64.53,0,0,0.03,0.1,-0.99,3.64,-4.06,-2.94,-77.59,78.88,-49.02,0.0,False,0.0,0.0,0.0,0.0
4979.0,4979.0,0.0,0.0,0.0,64.53,0,0,0.03,0.1,-0.99,3.64,-4.06,-2.94,-77.59,78.88,-49.02,0.0,False,0.0,0.0,0.0,0.0
4979.0,4979.0,0.0,0.0,0.0,64.53,0,0,0.03,0.1,-0.99,3.64,-4.06,-2.94,-77.59,78.88,-49.02,0.0,False,0.0,0.0,0.0,0.0
5002.0,5002.0,0.0,0.0,0.0,64.53,0,0,0.03,0.09,-0.99,3.85,-4.13,-2.8,-77.59,78.88,-49.02,0.0,False,0.0,0.0,0.0,0.0
5002.0,5002.0,0.0,0.0,0.0,64.53,0,0,0.03,0.09,-0.99,3.85,-4.13,-2.8,-77.59,78.88,-49.02,0.0,False,0.0,0.0,0.0,0.0
5002.0,5002.0,0.0,0.0,0.0,64.53,0,0,0.03,0.09,-0.99,3.85,-4.13,-2.8,-77.59,78.88,-49.02,0.0,False,0.0,0.0,0.0,0.0
5002.0,5002.0,0.0,0.0,0.0,64.53,0,0,0.03,0.09,-0.99,3.85,-4.13,-2.8,-77.59,78.88,-49.02,0.0,False,0.0,0.0,0.0,0.0
5002.0,5002.0,0.0,0.0,0.0,64.53,0,0,0.03,0.09,-0.99,3.85,-4.13,-2.8,-77.59,78.88,-49.02,0.0,False,0.0,0.0,0.0,0.0
5024.0,5024.0,0.0,0.0,0.0,64.53,0,0,0.03,0.1,-1.0,3.78,-3.99,-2.8,-77.59,78.88,-49.02,0.0,False,0.0,0.0,0.0,0.0
5024.0,5024.0,0.0,0.0,0.0,64.53,0,0,0.03,0.1,-1.0,3.78,-3.99,-2.8,-77.59,78.88,-49.02,0.0,False,0.0,0.0,0.0,0.0
5024.0,5024.0,0.0,0.0,0.0,64.53,0,0,0.03,0.1,-1.0,3.78,-3.99,-2.8,-77.59,78.88,-49.02,0.0,False,0.0,0.0,0.0,0.0
5024.0,5024.0,0.0,0.0,0.0,64.53,0,0,0.03,0.1,-1.0,3.78,-3.99,-2.8,-77.59,78.88,-49.02,0.0,False,0.0,0.0,0.0,0.0
5044.0,5044.0,0.0,0.0,0.0,64.53,0,0,0.03,0.09,-0.99,3.78,-3.78,-2.66,-77.59,78.88,-49.02,0.0,False,0.0,0.0,0.0,0.0
5044.0,5044.0,0.0,0.0,0.0,64.53,0,0,0.03,0.09,-0.99,3.78,-3.78,-2.66,-77.59,78.88,-49.02,0.0,False,0.0,0.0,0.0,0.0
5044.0,5044.0,0.0,0.0,0.0,64.53,0,0,0.03,0.09,-0.99,3.78,-3.78,-2.66,-77.59,78.88,-49.02,0.0,False,0.0,0.0,0.0,0.0
5044.0,5044.0,0.0,0.0,0.0,64.53,0,0,0.03,0.09,-0.99,3.78,-3.78,-2.66,-77.59,78.88,-49.02,0.0,False,0.0,0.0,0.0,0.0
5064.0,5064.0,0.0,0.0,0.0,64.74,0,0,0.03,0.09,-1.0,3.78,-4.06,-3.08,-77.51,78.22,-48.39,0.0,False,0.0,0.0,0.0,0.0
5064.0,5064.0,0.0,0.0,0.0,64.74,0,0,0.03,0.09,-1.0,3.78,-4.06,-3.08,-77.51,78.22,-48.39,0.0,False,0.0,0.0,0.0,0.0
5064.0,5064.0,0.0,0.0,0.0,64.74,0,0,0.03,0.09,-1.0,3.78,-4.06,-3.08,-77.51,78.22,-48.39,0.0,False,0.0,0.0,0.0,0.0
5064.0,5064.0,0.0,0.0,0.0,64.74,0,0,0.03,0.09,-1.0,3.78,-4.06,-3.08,-77.51,78.22,-48.39,0.0,False,0.0,0.0,0.0,0.0
5084.0,5084.0,0.0,0.0,0.0,64.74,0,0,0.03,0.09,-0.99,3.78,-4.27,-2.8,-77.51,78.22,-48.39,0.0,False,0.0,0.0,0.0,0.0
5084.0,5084.0,0.0,0.0,0.0,64.74,0,0,0.03,0.09,-0.99,3.78,-4.27,-2.8,-77.51,78.22,-48.39,0.0,False,0.0,0.0,0.0,0.0
5084.0,5084.0,0.0,0.0,0.0,64.74,0,0,0.03,0.09,-0.99,3.78,-4.27,-2.8,-77.51,78.22,-48.39,0.0,False,0.0,0.0,0.0,0.0
5084.0,5084.0,0.0,0.0,0.0,64.74,0,0,0.03,0.09,-0.99,3.78,-4.27,-2.8,-77.51,78.22,-48.39,0.0,False,0.0,0.0,0.0,0.0
5104.0,5104.0,0.0,0.0,0.0,64.74,0,0,0.03,0.09,-0.99,3.71,-3.99,-2.94,-77.51,78.22,-48.39,0.0,False,0.0,0.0,0.0,0.0
5104.0,5104.0,0.0,0.0,0.0,64.74,0,0,0.03,0.09,-0.99,3.71,-3.99,-2.94,-77.51,78.22,-48.39,0.0,False,0.0,0.0,0.0,0.0
5104.0,5104.0,0.0,0.0,0.0,64.74,0,0,0.03,0.09,-0.99,3.71,-3.99,-2.94,-77.51,78.22,-48.39,0.0,False,0.0,0.0,0.0,0.0
5104.0,5104.0,0.0,0.0,0.0,64.74,0,0,0.03,0.09,-0.99,3.71,-3.99,-2.94,-77.51,78.22,-48.39,0.0,False,0.0,0.0,0.0,0.0
5104.0,5104.0,0.0,0.0,0.0,64.74,0,0,0.03,0.09,-0.99,3.71,-3.99,-2.94,-77.51,78.22,-48.39,0.0,False,0.0,0.0,0.0,0.0
5127.0,5127.0,0.0,0.0,0.0,64.74,0,0,0.03,0.09,-1.0,3.85,-4.06,-2.73,-77.51,78.22,-48.39,0.0,False,0.0,0.0,0.0,0.0
5127.0,5127.0,0.0,0.0,0.0,64.74,0,0,0.03,0.09,-1.0,3.85,-4.06,-2.73,-77.51,78.22,-48.39,0.0,False,0.0,0.0,0.0,0.0
5127.0,5127.0,0.0,0.0,0.0,64.74,0,0,0.03,0.09,-1.0,3.85,-4.06,-2.73,-77.51,78.22,-48.39,0.0,False,0.0,0.0,0.0,0.0
5127.0,5127.0,0.0,0.0,0.0,64.74,0,0,0.03,0.09,-1.0,3.85,-4.06,-2.73,-77.51,78.22,-48.39,0.0,False,0.0,0.0,0.0,0.0
5127.0,5127.0,0.0,0.0,0.0,64.74,0,0,0.03,0.09,-1.0,3.85,-4.06,-2.73,-77.51,78.22,-48.39,0.0,False,0.0,0.0,0.0,0.0
5150.0,5150.0,0.0,0.0,0.0,64.72,0,0,0.03,0.09,-1.0,3.78,-4.06,-2.66,-77.46,78.22,-48.44,0.0,False,0.0,0.0,0.0,0.0
5150.0,5150.0,0.0,0.0,0.0,64.72,0,0,0.03,0.09,-1.0,3.78,-4.06,-2.66,-77.46,78.22,-48.44,0.0,False,0.0,0.0,0.0,0.0
5150.0,5150.0,0.0,0.0,0.0,64.72,0,0,0.03,0.09,-1.0,3.78,-4.06,-2.66,-77.46,78.22,-48.44,0.0,False,0.0,0.0,0.0,0.0
5150.0,5150.0,0.0,0.0,0.0,64.72,0,0,0.03,0.09,-1.0,3.78,-4.06,-2.66,-77.46,78.22,-48.44,0.0,False,0.0,0.0,0.0,0.0
5150.0,5150.0,0.0,0.0,0.0,64.72,0,0,0.03,0.09,-1.0,3.78,-4.06,-2.66,-77.46,78.22,-48.44,0.0,False,0.0,0.0,0.0,0.0
5172.0,5172.0,0.0,0.0,0.0,64.72,0,0,0.03,0.08,-1.0,3.78,-3.85,-2.66,-77.46,78.22,-48.44,0.0,False,0.0,0.0,0.0,0.0
5172.0,5172.0,0.0,0.0,0.0,64.72,0,0,0.03,0.08,-1.0,3.78,-3.85,-2.66,-77.46,78.22,-48.44,0.0,False,0.0,0.0,0.0,0.0
5172.0,5172.0,0.0,0.0,0.0,64.72,0,0,0.03,0.08,-1.0,3.78,-3.85,-2.66,-77.46,78.22,-48.44,0.0,False,0.0,0.0,0.0,0.0
5172.0,5172.0,0.0,0.0,0.0,64.72,0,0,0.03,0.08,-1.0,3.78,-3.85,-2.66,-77.46,78.22,-48.44,0.0,False,0.0,0.0,0.0,0.0
5192.0,5192.0,0.0,0.0,0.0,64.72,0,0,0.03,0.09,-1.0,3.85,-3.99,-2.73,-77.46,78.22,-48.44,0.0,False,0.0,0.0,0.0,0.0
5192.0,5192.0,0.0,0.0,0.0,64.72,0,0,0.03,0.09,-1.0,3.85,-3.99,-2.73,-77.46,78.22,-48.44,0.0,False,0.0,0.0,0.0,0.0
5192.0,5192.0,0.0,0.0,0.0,64.72,0,0,0.03,0.09,-1.0,3.85,-3.99,-2.73,-77.46,78.22,-48.44,0.0,False,0.0,0.0,0.0,0.0
5192.0,5192.0,0.0,0.0,0.0,64.72,0,0,0.03,0.09,-1.0,3.85,-3.99,-2.73,-77.46,78.22,-48.44,0.0,False,0.0,0.0,0.0,0.0
5212.0,5212.0,0.0,0.0,0.0,64.72,0,0,0.02,0.09,-1.0,3.85,-4.06,-2.66,-77.46,78.22,-48.44,0.0,False,0.0,0.0,0.0,0.0
5212.0,5212.0,0.0,0.0,0.0,64.72,0,0,0.02,0.09,-1.0,3.85,-4.06,-2.66,-77.46,78.22,-48.44,0.0,False,0.0,0.0,0.0,0.0
5212.0,5212.0,0.0,0.0,0.0,64.72,0,0,0.02,0.09,-1.0,3.85,-4.06,-2.66,-77.46,78.22,-48.44,0.0,False,0.0,0.0,0.0,0.0
5212.0,5212.0,0.0,0.0,0.0,64.72,0,0,0.02,0.09,-1.0,3.85,-4.06,-2.66,-77.46,78.22,-48.44,0.0,False,0.0,0.0,0.0,0.0
5232.0,5232.0,0.0,0.0,0.0,64.72,0,0,0.03,0.09,-0.99,3.92,-4.06,-2.87,-77.46,78.22,-48.44,0.0,False,0.0,0.0,0.0,0.0
5232.0,5232.0,0.0,0.0,0.0,64.72,0,0,0.03,0.09,-0.99,3.92,-4.06,-2.87,-77.46,78.22,-48.44,0.0,False,0.0,0.0,0.0,0.0
5232.0,5232.0,0.0,0.0,0.0,64.72,0,0,0.03,0.09,-0.99,3.92,-4.06,-2.87,-77.46,78.22,-48.44,0.0,False,0.0,0.0,0.0,0.0
5232.0,5232.0,0.0,0.0,0.0,64.72,0,0,0.03,0.09,-0.99,3.92,-4.06,-2.87,-77.46,78.22,-48.44,0.0,False,0.0,0.0,0.0,0.0
5252.0,5252.0,0.0,0.0,0.0,64.91,0,0,0.03,0.09,-0.99,3.78,-3.99,-2.73,-77.95,78.19,-48.26,0.0,False,0.0,0.0,0.0,0.0
5252.0,5252.0,0.0,0.0,0.0,64.91,0,0,0.03,0.09,-0.99,3.78,-3.99,-2.73,-77.95,78.19,-48.26,0.0,False,0.0,0.0,0.0,0.0
5252.0,5252.0,0.0,0.0,0.0,64.91,0,0,0.03,0.09,-0.99,3.78,-3.99,-2.73,-77.95,78.19,-48.26,0.0,False,0.0,0.0,0.0,0.0
5252.0,5252.0,0.0,0.0,0.0,64.91,0,0,0.03,0.09,-0.99,3.78,-3.99,-2.73,-77.95,78.19,-48.26,0.0,False,0.0,0.0,0.0,0.0
5272.0,5272.0,0.0,0.0,0.0,64.91,0,0,0.02,0.09,-0.99,3.85,-4.13,-2.66,-77.95,78.19,-48.26,0.0,False,0.0,0.0,0.0,0.0
5272.0,5272.0,0.0,0.0,0.0,64.91,0,0,0.02,0.09,-0.99,3.85,-4.13,-2.66,-77.95,78.19,-48.26,0.0,False,0.0,0.0,0.0,0.0
5272.0,5272.0,0.0,0.0,0.0,64.91,0,0,0.02,0.09,-0.99,3.85,-4.13,-2.66,-77.95,78.19,-48.26,0.0,False,0.0,0.0,0.0,0.0
5272.0,5272.0,0.0,0.0,0.0,64.91,0,0,0.02,0.09,-0.99,3.85,-4.13,-2.66,-77.95,78.19,-48.26,0.0,False,0.0,0.0,0.0,0.0
5292.0,5292.0,0.0,0.0,0.0,64.91,0,0,0.03,0.09,-0.99,3.85,-3.99,-2.87,-77.95,78.19,-48.26,0.0,False,0.0,0.0,0.0,0.0
5292.0,5292.0,0.0,0.0,0.0,64.91,0,0,0.03,0.09,-0.99,3.85,-3.99,-2.87,-77.95,78.19,-48.26,0.0,False,0.0,0.0,0.0,0.0
5292.0,5292.0,0.0,0.0,0.0,64.91,0,0,0.03,0.09,-0.99,3.85,-3.99,-2.87,-77.95,78.19,-48.26,0.0,False,0.0,0.0,0.0,0.0
5292.0,5292.0,0.0,0.0,0.0,64.91,0,0,0.03,0.09,-0.99,3.85,-3.99,-2.87,-77.95,78.19,-48.26,0.0,False,0.0,0.0,0.0,0.0
5312.0,5312.0,0.0,0.0,0.0,64.91,0,0,0.03,0.09,-0.99,3.71,-3.99,-2.73,-77.95,78.19,-48.26,0.0,False,0.0,0.0,0.0,0.0
5312.0,5312.0,0.0,0.0,0.0,64.91,0,0,0.03,0.09,-0.99,3.71,-3.99,-2.73,-77.95,78.19,-48.26,0.0,False,0.0,0.0,0.0,0.0
5312.0,5312.0,0.0,0.0,0.0,64.91,0,0,0.03,0.09,-0.99,3.71,-3.99,-2.73,-77.95,78.19,-48.26,0.0,False,0.0,0.0,0.0,0.0
5312.0,5312.0,0.0,0.0,0.0,64.91,0,0,0.03,0.09,-0.99,3.71,-3.99,-2.73,-77.95,78.19,-48.26,0.0,False,0.0,0.0,0.0,0.0
5312.0,5312.0,0.0,0.0,0.0,64.91,0,0,0.03,0.09,-0.99,3.71,-3.99,-2.73,-77.95,78.19,-48.26,0.0,False,0.0,0.0,0.0,0.0
5335.0,5335.0,0.0,0.0,0.0,64.91,0,0,0.03,0.09,-0.99,3.92,-4.06,-2.87,-77.95,78.19,-48.26,0.0,False,0.0,0.0,0.0,0.0
5335.0,5335.0,0.0,0.0,0.0,64.91,0,0,0.03,0.09,-0.99,3.92,-4.06,-2.87,-77.95,78.19,-48.26,0.0,False,0.0,0.0,0.0,0.0
5335.0,5335.0,0.0,0.0,0.0,64.91,0,0,0.03,0.09,-0.99,3.92,-4.06,-2.87,-77.95,78.19,-48.26,0.0,False,0.0,0.0,0.0,0.0
5335.0,5335.0,0.0,0.0,0.0,64.91,0,0,0.03,0.09,-0.99,3.92,-4.06,-2.87,-77.95,78.19,-48.26,0.0,False,0.0,0.0,0.0,0.0
5335.0,5335.0,0.0,0.0,0.0,64.91,0,0,0.03,0.09,-0.99,3.92,-4.06,-2.87,-77.95,78.19,-48.26,0.0,False,0.0,0.0,0.0,0.0
5357.0,5357.0,0.0,0.0,0.0,64.55,0,0,0.03,0.09,-0.99,3.78,-3.99,-2.73,-77.45,78.68,-48.58,0.0,False,0.0,0.0,0.0,0.0
5357.0,5357.0,0.0,0.0,0.0,64.55,0,0,0.03,0.09,-0.99,3.78,-3.99,-2.73,-77.45,78.68,-48.58,0.0,False,0.0,0.0,0.0,0.0
5357.0,5357.0,0.0,0.0,0.0,64.55,0,0,0.03,0.09,-0.99,3.78,-3.99,-2.73,-77.45,78.68,-48.58,0.0,False,0.0,0.0,0.0,0.0
5357.0,5357.0,0.0,0.0,0.0,64.55,0,0,0.03,0.09,-0.99,3.78,-3.99,-2.73,-77.45,78.68,-48.58,0.0,False,0.0,0.0,0.0,0.0
5377.0,5377.0,0.0,0.0,0.0,64.55,0,0,0.03,0.09,-0.99,3.85,-3.92,-2.73,-77.45,78.68,-48.58,0.0,False,0.0,0.0,0.0,0.0
5377.0,5377.0,0.0,0.0,0.0,64.55,0,0,0.03,0.09,-0.99,3.85,-3.92,-2.73,-77.45,78.68,-48.58,0.0,False,0.0,0.0,0.0,0.0
5377.0,5377.0,0.0,0.0,0.0,64.55,0,0,0.03,0.09,-0.99,3.85,-3.92,-2.73,-77.45,78.68,-48.58,0.0,False,0.0,0.0,0.0,0.0
5377.0,5377.0,0.0,0.0,0.0,64.55,0,0,0.03,0.09,-0.99,3.85,-3.92,-2.73,-77.45,78.68,-48.58,0.0,False,0.0,0.0,0.0,0.0
5397.0,5397.0,0.0,0.0,0.0,64.55,0,0,0.03,0.09,-0.99,3.78,-4.06,-2.8,-77.45,78.68,-48.58,0.0,False,0.0,0.0,0.0,0.0
5397.0,5397.0,0.0,0.0,0.0,64.55,0,0,0.03,0.09,-0.99,3.78,-4.06,-2.8,-77.45,78.68,-48.58,0.0,False,0.0,0.0,0.0,0.0
5397.0,5397.0,0.0,0.0,0.0,64.55,0,0,0.03,0.09,-0.99,3.78,-4.06,-2.8,-77.45,78.68,-48.58,0.0,False,0.0,0.0,0.0,0.0
5397.0,5397.0,0.0,0.0,0.0,64.55,0,0,0.03,0.09,-0.99,3.78,-4.06,-2.8,-77.45,78.68,-48.58,0.0,False,0.0,0.0,0.0,0.0
5417.0,5417.0,0.0,0.0,0.0,64.55,0,0,0.03,0.09,-0.99,3.85,-4.06,-2.8,-77.45,78.68,-48.58,0.0,False,0.0,0.0,0.0,0.0
5417.0,5417.0,0.0,0.0,0.0,64.55,0,0,0.03,0.09,-0.99,3.85,-4.06,-2.8,-77.45,78.68,-48.58,0.0,False,0.0,0.0,0.0,0.0
5417.0,5417.0,0.0,0.0,0.0,64.55,0,0,0.03,0.09,-0.99,3.85,-4.06,-2.8,-77.45,78.68,-48.58,0.0,False,0.0,0.0,0.0,0.0
5417.0,5417.0,0.0,0.0,0.0,64.55,0,0,0.03,0.09,-0.99,3.85,-4.06,-2.8,-77.45,78.68,-48.58,0.0,False,0.0,0.0,0.0,0.0
5417.0,5417.0,0.0,0.0,0.0,64.55,0,0,0.03,0.09,-0.99,3.85,-4.06,-2.8,-77.45,78.68,-48.58,0.0,False,0.0,0.0,0.0,0.0
5440.0,5440.0,0.0,0.0,0.0,64.55,0,0,0.03,0.1,-0.99,3.85,-4.06,-2.8,-77.45,78.68,-48.36,0.0,False,0.0,0.0,0.0,0.0
5440.0,5440.0,0.0,0.0,0.0,64.55,0,0,0.03,0.1,-0.99,3.85,-4.06,-2.8,-77.45,78.68,-48.36,0.0,False,0.0,0.0,0.0,0.0
5440.0,5440.0,0.0,0.0,0.0,64.55,0,0,0.03,0.1,-0.99,3.85,-4.06,-2.8,-77.45,78.68,-48.36,0.0,False,0.0,0.0,0.0,0.0
5440.0,5440.0,0.0,0.0,0.0,64.55,0,0,0.03,0.1,-0.99,3.85,-4.06,-2.8,-77.45,78.68,-48.36,0.0,False,0.0,0.0,0.0,0.0
5460.0,5460.0,0.0,0.0,0.0,64.63,0,0,0.02,0.09,-0.99,3.85,-4.06,-2.8,-77.3,78.31,-48.36,0.0,False,0.0,0.0,0.0,0.0
5460.0,5460.0,0.0,0.0,0.0,64.63,0,0,0.02,0.09,-0.99,3.85,-4.06,-2.8,-77.3,78.31,-48.36,0.0,False,0.0,0.0,0.0,0.0
5460.0,5460.0,0.0,0.0,0.0,64.63,0,0,0.02,0.09,-0.99,3.85,-4.06,-2.8,-77.3,78.31,-48.36,0.0,False,0.0,0.0,0.0,0.0
5460.0,5460.0,0.0,0.0,0.0,64.63,0,0,0.02,0.09,-0.99,3.85,-4.06,-2.8,-77.3,78.31,-48.36,0.0,False,0.0,0.0,0.0,0.0
5460.0,5460.0,0.0,0.0,0.0,64.63,0,0,0.02,0.09,-0.99,3.85,-4.06,-2.8,-77.3,78.31,-48.36,0.0,False,0.0,0.0,0.0,0.0
5482.0,5482.0,0.0,0.0,0.0,64.63,0,0,0.03,0.09,-1.0,3.85,-4.2,-2.66,-77.3,78.31,-48.36,0.0,False,0.0,0.0,0.0,0.0
5482.0,5482.0,0.0,0.0,0.0,64.63,0,0,0.03,0.09,-1.0,3.85,-4.2,-2.66,-77.3,78.31,-48.36,0.0,False,0.0,0.0,0.0,0.0
5482.0,5482.0,0.0,0.0,0.0,64.63,0,0,0.03,0.09,-1.0,3.85,-4.2,-2.66,-77.3,78.31,-48.36,0.0,False,0.0,0.0,0.0,0.0
5482.0,5482.0,0.0,0.0,0.0,64.63,0,0,0.03,0.09,-1.0,3.85,-4.2,-2.66,-77.3,78.31,-48.36,0.0,False,0.0,0.0,0.0,0.0
5482.0,5482.0,0.0,0.0,0.0,64.63,0,0,0.03,0.09,-1.0,3.85,-4.2,-2.66,-77.3,78.31,-48.36,0.0,False,0.0,0.0,0.0,0.0
5504.0,5504.0,0.0,0.0,0.0,64.63,0,0,0.03,0.1,-0.99,3.71,-3.92,-2.87,-77.3,78.31,-48.36,0.0,False,0.0,0.0,0.0,0.0
5504.0,5504.0,0.0,0.0,0.0,64.63,0,0,0.03,0.1,-0.99,3.71,-3.92,-2.87,-77.3,78.31,-48.36,0.0,False,0.0,0.0,0.0,0.0
5504.0,5504.0,0.0,0.0,0.0,64.63,0,0,0.03,0.1,-0.99,3.71,-3.92,-2.87,-77.3,78.31,-48.36,0.0,False,0.0,0.0,0.0,0.0
5504.0,5504.0,0.0,0.0,0.0,64.63,0,0,0.03,0.1,-0.99,3.71,-3.92,-2.87,-77.3,78.31,-48.36,0.0,False,0.0,0.0,0.0,0.0
5504.0,5504.0,0.0,0.0,0.0,64.63,0,0,0.03,0.1,-0.99,3.71,-3.92,-2.87,-77.3,78.31,-48.36,0.0,False,0.0,0.0,0.0,0.0
5527.0,5527.0,0.0,0.0,0.0,64.63,0,0,0.03,0.1,-0.99,3.71,-3.92,-2.8,-77.3,78.31,-48.36,0.0,False,0.0,0.0,0.0,0.0
5527.0,5527.0,0.0,0.0,0.0,64.63,0,0,0.03,0.1,-0.99,3.71,-3.92,-2.8,-77.3,78.31,-48.36,0.0,False,0.0,0.0,0.0,0.0
5527.0,5527.0,0.0,0.0,0.0,64.63,0,0,0.03,0.1,-0.99,3.71,-3.92,-2.8,-77.3,78.31,-48.36,0.0,False,0.0,0.0,0.0,0.0
5527.0,5527.0,0.0,0.0,0.0,64.63,0,0,0.03,0.1,-0.99,3.71,-3.92,-2.8,-77.3,78.31,-48.36,0.0,False,0.0,0.0,0.0,0.0
5527.0,5527.0,0.0,0.0,0.0,64.63,0,0,0.03,0.1,-0.99,3.71,-3.92,-2.8,-77.3,78.31,-48.36,0.0,False,0.0,0.0,0.0,0.0
5550.0,5550.0,0.0,0.0,0.0,64.92,0,0,0.03,0.09,-0.99,3.92,-3.99,-2.73,-77.95,78.15,-48.36,0.0,False,0.0,0.0,0.0,0.0
5550.0,5550.0,0.0,0.0,0.0,64.92,0,0,0.03,0.09,-0.99,3.92,-3.99,-2.73,-77.95,78.15,-48.36,0.0,False,0.0,0.0,0.0,0.0
5550.0,5550.0,0.0,0.0,0.0,64.92,0,0,0.03,0.09,-0.99,3.92,-3.99,-2.73,-77.95,78.15,-48.36,0.0,False,0.0,0.0,0.0,0.0
5550.0,5550.0,0.0,0.0,0.0,64.92,0,0,0.03,0.09,-0.99,3.92,-3.99,-2.73,-77.95,78.15,-48.36,0.0,False,0.0,0.0,0.0,0.0
5570.0,5570.0,0.0,0.0,0.0,64.92,0,0,0.02,0.09,-1.0,3.71,-4.06,-2.8,-77.95,78.15,-48.36,0.0,False,0.0,0.0,0.0,0.0
5570.0,5570.0,0.0,0.0,0.0,64.92,0,0,0.02,0.09,-1.0,3.71,-4.06,-2.8,-77.95,78.15,-48.36,0.0,False,0.0,0.0,0.0,0.0
5570.0,5570.0,0.0,0.0,0.0,64.92,0,0,0.02,0.09,-1.0,3.71,-4.06,-2.8,-77.95,78.15,-48.36,0.0,False,0.0,0.0,0.0,0.0
5570.0,5570.0,0.0,0.0,0.0,64.92,0,0,0.02,0.09,-1.0,3.71,-4.06,-2.8,-77.95,78.15,-48.36,0.0,False,0.0,0.0,0.0,0.0
5570.0,5570.0,0.0,0.0,0.0,64.92,0,0,0.02,0.09,-1.0,3.71,-4.06,-2.8,-77.95,78.15,-48.36,0.0,False,0.0,0.0,0.0,0.0
5592.0,5592.0,0.0,0.0,0.0,64.92,0,0,0.03,0.09,-0.99,3.85,-3.78,-2.59,-77.95,78.15,-48.36,0.0,False,0.0,0.0,0.0,0.0
5592.0,5592.0,0.0,0.0,0.0,64.92,0,0,0.03,0.09,-0.99,3.85,-3.78,-2.59,-77.95,78.15,-48.36,0.0,False,0.0,0.0,0.0,0.0
5592.0,5592.0,0.0,0.0,0.0,64.92,0,0,0.03,0.09,-0.99,3.85,-3.78,-2.59,-77.95,78.15,-48.36,0.0,False,0.0,0.0,0.0,0.0
5592.0,5592.0,0.0,0.0,0.0,64.92,0,0,0.03,0.09,-0.99,3.85,-3.78,-2.59,-77.95,78.15,-48.36,0.0,False,0.0,0.0,0.0,0.0
5612.0,5612.0,0.0,0.0,0.0,64.92,0,0,0.03,0.09,-0.99,3.71,-4.06,-2.8,-77.95,78.15,-48.36,0.0,False,0.0,0.0,0.0,0.0
5612.0,5612.0,0.0,0.0,0.0,64.92,0,0,0.03,0.09,-0.99,3.71,-4.06,-2.8,-77.95,78.15,-48.36,0.0,False,0.0,0.0,0.0,0.0
5612.0,5612.0,0.0,0.0,0.0,64.92,0,0,0.03,0.09,-0.99,3.71,-4.06,-2.8,-77.95,78.15,-48.36,0.0,False,0.0,0.0,0.0,0.0
5612.0,5612.0,0.0,0.0,0.0,64.92,0,0,0.03,0.09,-0.99,3.71,-4.06,-2.8,-77.95,78.15,-48.36,0.0,False,0.0,0.0,0.0,0.0
5632.0,5632.0,0.0,0.0,0.0,64.92,0,0,0.03,0.09,-1.0,3.78,-3.92,-2.73,-77.95,78.15,-48.36,0.0,False,0.0,0.0,0.0,0.0
5632.0,5632.0,0.0,0.0,0.0,64.92,0,0,0.03,0.09,-1.0,3.78,-3.92,-2.73,-77.95,78.15,-48.36,0.0,False,0.0,0.0,0.0,0.0
5632.0,5632.0,0.0,0.0,0.0,64.92,0,0,0.03,0.09,-1.0,3.78,-3.92,-2.73,-77.95,78.15,-48.36,0.0,False,0.0,0.0,0.0,0.0
5632.0,5632.0,0.0,0.0,0.0,64.92,0,0,0.03,0.09,-1.0,3.78,-3.92,-2.73,-77.95,78.15,-48.36,0.0,False,0.0,0.0,0.0,0.0
5652.0,5652.0,0.0,0.0,0.0,64.8,0,0,0.03,0.09,-0.99,3.71,-4.2,-2.87,-77.35,77.9,-47.94,0.0,False,0.0,0.0,0.0,0.0
5652.0,5652.0,0.0,0.0,0.0,64.8,0,0,0.03,0.09,-0.99,3.71,-4.2,-2.87,-77.35,77.9,-47.94,0.0,False,0.0,0.0,0.0,0.0
5652.0,5652.0,0.0,0.0,0.0,64.8,0,0,0.03,0.09,-0.99,3.71,-4.2,-2.87,-77.35,77.9,-47.94,0.0,False,0.0,0.0,0.0,0.0
5652.0,5652.0,0.0,0.0,0.0,64.8,0,0,0.03,0.09,-0.99,3.71,-4.2,-2.87,-77.35,77.9,-47.94,0.0,False,0.0,0.0,0.0,0.0
5672.0,5672.0,0.0,0.0,0.0,64.8,0,0,0.03,0.09,-1.0,3.64,-4.2,-2.73,-77.35,77.9,-47.94,0.0,False,0.0,0.0,0.0,0.0
5672.0,5672.0,0.0,0.0,0.0,64.8,0,0,0.03,0.09,-1.0,3.64,-4.2,-2.73,-77.35,77.9,-47.94,0.0,False,0.0,0.0,0.0,0.0
5672.0,5672.0,0.0,0.0,0.0,64.8,0,0,0.03,0.09,-1.0,3.64,-4.2,-2.73,-77.35,77.9,-47.94,0.0,False,0.0,0.0,0.0,0.0
5672.0,5672.0,0.0,0.0,0.0,64.8,0,0,0.03,0.09,-1.0,3.64,-4.2,-2.73,-77.35,77.9,-47.94,0.0,False,0.0,0.0,0.0,0.0
5692.0,5692.0,0.0,0.0,0.0,64.8,0,0,0.03,0.1,-0.99,3.78,-3.92,-2.87,-77.35,77.9,-47.94,0.0,False,0.0,0.0,0.0,0.0
5692.0,5692.0,0.0,0.0,0.0,64.8,0,0,0.03,0.1,-0.99,3.78,-3.92,-2.87,-77.35,77.9,-47.94,0.0,False,0.0,0.0,0.0,0.0
5692.0,5692.0,0.0,0.0,0.0,64.8,0,0,0.03,0.1,-0.99,3.78,-3.92,-2.87,-77.35,77.9,-47.94,0.0,False,0.0,0.0,0.0,0.0
5692.0,5692.0,0.0,0.0,0.0,64.8,0,0,0.03,0.1,-0.99,3.78,-3.92,-2.87,-77.35,77.9,-47.94,0.0,False,0.0,0.0,0.0,0.0
5692.0,5692.0,0.0,0.0,0.0,64.8,0,0,0.03,0.1,-0.99,3.78,-3.92,-2.87,-77.35,77.9,-47.94,0.0,False,0.0,0.0,0.0,0.0
5714.0,5714.0,0.0,0.0,0.0,64.8,0,0,0.03,0.09,-0.99,3.85,-4.06,-2.59,-77.35,77.9,-47.94,0.0,False,0.0,0.0,0.0,0.0
5714.0,5714.0,0.0,0.0,0.0,64.8,0,0,0.03,0.09,-0.99,3.85,-4.06,-2.59,-77.35,77.9,-47.94,0.0,False,0.0,0.0,0.0,0.0
5714.0,5714.0,0.0,0.0,0.0,64.8,0,0,0.03,0.09,-0.99,3.85,-4.06,-2.59,-77.35,77.9,-47.94,0.0,False,0.0,0.0,0.0,0.0
5714.0,5714.0,0.0,0.0,0.0,64.8,0,0,0.03,0.09,-0.99,3.85,-4.06,-2.59,-77.35,77.9,-47.94,0.0,False,0.0,0.0,0.0,0.0
5734.0,5734.0,0.0,0.0,0.0,64.8,0,0,0.02,0.09,-0.99,3.71,-4.06,-2.66,-77.35,77.9,-47.94,0.0,False,0.0,0.0,0.0,0.0
5734.0,5734.0,0.0,0.0,0.0,64.8,0,0,0.02,0.09,-0.99,3.71,-4.06,-2.66,-77.35,77.9,-47.94,0.0,False,0.0,0.0,0.0,0.0
5734.0,5734.0,0.0,0.0,0.0,64.8,0,0,0.02,0.09,-0.99,3.71,-4.06,-2.66,-77.35,77.9,-47.94,0.0,False,0.0,0.0,0.0,0.0
5734.0,5734.0,0.0,0.0,0.0,64.8,0,0,0.02,0.09,-0.99,3.71,-4.06,-2.66,-77.35,77.9,-47.94,0.0,False,0.0,0.0,0.0,0.0
5754.0,5754.0,0.0,0.0,0.0,64.76,0,0,0.03,0.09,-1.0,3.85,-4.06,-2.73,-77.71,78.37,-48.28,0.0,False,0.0,0.0,0.0,0.0
5754.0,5754.0,0.0,0.0,0.0,64.76,0,0,0.03,0.09,-1.0,3.85,-4.06,-2.73,-77.71,78.37,-48.28,0.0,False,0.0,0.0,0.0,0.0
5754.0,5754.0,0.0,0.0,0.0,64.76,0,0,0.03,0.09,-1.0,3.85,-4.06,-2.73,-77.71,78.37,-48.28,0.0,False,0.0,0.0,0.0,0.0
5754.0,5754.0,0.0,0.0,0.0,64.76,0,0,0.03,0.09,-1.0,3.85,-4.06,-2.73,-77.71,78.37,-48.28,0.0,False,0.0,0.0,0.0,0.0
5774.0,5774.0,0.0,0.0,0.0,64.76,0,0,0.03,0.09,-0.99,3.85,-3.92,-2.66,-77.71,78.37,-48.28,0.0,False,0.0,0.0,0.0,0.0
5774.0,5774.0,0.0,0.0,0.0,64.76,0,0,0.03,0.09,-0.99,3.85,-3.92,-2.66,-77.71,78.37,-48.28,0.0,False,0.0,0.0,0.0,0.0
5774.0,5774.0,0.0,0.0,0.0,64.76,0,0,0.03,0.09,-0.99,3.85,-3.92,-2.66,-77.71,78.37,-48.28,0.0,False,0.0,0.0,0.0,0.0
5774.0,5774.0,0.0,0.0,0.0,64.76,0,0,0.03,0.09,-0.99,3.85,-3.92,-2.66,-77.71,78.37,-48.28,0.0,False,0.0,0.0,0.0,0.0
5794.0,5794.0,0.0,0.0,0.0,64.76,0,0,0.03,0.09,-0.99,3.71,-3.92,-2.73,-77.71,78.37,-48.28,0.0,False,0.0,0.0,0.0,0.0
5794.0,5794.0,0.0,0.0,0.0,64.76,0,0,0.03,0.09,-0.99,3.71,-3.92,-2.73,-77.71,78.37,-48.28,0.0,False,0.0,0.0,0.0,0.0
5794.0,5794.0,0.0,0.0,0.0,64.76,0,0,0.03,0.09,-0.99,3.71,-3.92,-2.73,-77.71,78.37,-48.28,0.0,False,0.0,0.0,0.0,0.0
5794.0,5794.0,0.0,0.0,0.0,64.76,0,0,0.03,0.09,-0.99,3.71,-3.92,-2.73,-77.71,78.37,-48.28,0.0,False,0.0,0.0,0.0,0.0
5794.0,5794.0,0.0,0.0,0.0,64.76,0,0,0.03,0.09,-0.99,3.71,-3.92,-2.73,-77.71,78.37,-48.28,0.0,False,0.0,0.0,0.0,0.0
5816.0,5816.0,0.0,0.0,0.0,64.76,0,0,0.03,0.09,-0.99,3.64,-3.92,-2.66,-77.71,78.37,-48.28,0.0,False,0.0,0.0,0.0,0.0
5816.0,5816.0,0.0,0.0,0.0,64.76,0,0,0.03,0.09,-0.99,3.64,-3.92,-2.66,-77.71,78.37,-48.28,0.0,False,0.0,0.0,0.0,0.0
5816.0,5816.0,0.0,0.0,0.0,64.76,0,0,0.03,0.09,-0.99,3.64,-3.92,-2.66,-77.71,78.37,-48.28,0.0,False,0.0,0.0,0.0,0.0
5816.0,5816.0,0.0,0.0,0.0,64.76,0,0,0.03,0.09,-0.99,3.64,-3.92,-2.66,-77.71,78.37,-48.28,0.0,False,0.0,0.0,0.0,0.0
5816.0,5816.0,0.0,0.0,0.0,64.76,0,0,0.03,0.09,-0.99,3.64,-3.92,-2.66,-77.71,78.37,-48.28,0.0,False,0.0,0.0,0.0,0.0
5839.0,5839.0,0.0,0.0,0.0,64.76,0,0,0.03,0.09,-0.99,3.71,-3.99,-2.8,-78.28,77.95,-48.68,0.0,False,0.0,0.0,0.0,0.0
5839.0,5839.0,0.0,0.0,0.0,64.76,0,0,0.03,0.09,-0.99,3.71,-3.99,-2.8,-78.28,77.95,-48.68,0.0,False,0.0,0.0,0.0,0.0
5839.0,5839.0,0.0,0.0,0.0,64.76,0,0,0.03,0.09,-0.99,3.71,-3.99,-2.8,-78.28,77.95,-48.68,0.0,False,0.0,0.0,0.0,0.0
5839.0,5839.0,0.0,0.0,0.0,64.76,0,0,0.03,0.09,-0.99,3.71,-3.99,-2.8,-78.28,77.95,-48.68,0.0,False,0.0,0.0,0.0,0.0
5859.0,5859.0,0.0,0.0,0.0,65.12,0,0,0.03,0.09,-0.99,3.71,-4.2,-2.73,-78.28,77.95,-48.68,0.0,False,0.0,0.0,0.0,0.0
5859.0,5859.0,0.0,0.0,0.0,65.12,0,0,0.03,0.09,-0.99,3.71,-4.2,-2.73,-78.28,77.95,-48.68,0.0,False,0.0,0.0,0.0,0.0
5859.0,5859.0,0.0,0.0,0.0,65.12,0,0,0.03,0.09,-0.99,3.71,-4.2,-2.73,-78.28,77.95,-48.68,0.0,False,0.0,0.0,0.0,0.0
5859.0,5859.0,0.0,0.0,0.0,65.12,0,0,0.03,0.09,-0.99,3.71,-4.2,-2.73,-78.28,77.95,-48.68,0.0,False,0.0,0.0,0.0,0.0
5879.0,5879.0,0.0,0.0,0.0,65.12,0,0,0.03,0.09,-1.0,3.85,-4.06,-2.8,-78.28,77.95,-48.68,0.0,False,0.0,0.0,0.0,0.0
5879.0,5879.0,0.0,0.0,0.0,65.12,0,0,0.03,0.09,-1.0,3.85,-4.06,-2.8,-78.28,77.95,-48.68,0.0,False,0.0,0.0,0.0,0.0
5879.0,5879.0,0.0,0.0,0.0,65.12,0,0,0.03,0.09,-1.0,3.85,-4.06,-2.8,-78.28,77.95,-48.68,0.0,False,0.0,0.0,0.0,0.0
5879.0,5879.0,0.0,0.0,0.0,65.12,0,0,0.03,0.09,-1.0,3.85,-4.06,-2.8,-78.28,77.95,-48.68,0.0,False,0.0,0.0,0.0,0.0
5879.0,5879.0,0.0,0.0,0.0,65.12,0,0,0.03,0.09,-1.0,3.85,-4.06,-2.8,-78.28,77.95,-48.68,0.0,False,0.0,0.0,0.0,0.0
5901.0,5901.0,0.0,0.0,0.0,65.12,0,0,0.03,0.09,-0.99,3.71,-3.99,-2.73,-78.28,77.95,-48.68,0.0,False,0.0,0.0,0.0,0.0
5901.0,5901.0,0.0,0.0,0.0,65.12,0,0,0.03,0.09,-0.99,3.71,-3.99,-2.73,-78.28,77.95,-48.68,0.0,False,0.0,0.0,0.0,0.0
5901.0,5901.0,0.0,0.0,0.0,65.12,0,0,0.03,0.09,-0.99,3.71,-3.99,-2.73,-78.28,77.95,-48.68,0.0,False,0.0,0.0,0.0,0.0
5901.0,5901.0,0.0,0.0,0.0,65.12,0,0,0.03,0.09,-0.99,3.71,-3.99,-2.73,-78.28,77.95,-48.68,0.0,False,0.0,0.0,0.0,0.0
5921.0,5921.0,0.0,0.0,0.0,65.12,0,0,0.03,0.1,-0.99,3.71,-3.85,-2.66,-78.28,77.95,-48.68,0.0,False,0.0,0.0,0.0,0.0
5921.0,5921.0,0.0,0.0,0.0,65.12,0,0,0.03,0.1,-0.99,3.71,-3.85,-2.66,-78.28,77.95,-48.68,0.0,False,0.0,0.0,0.0,0.0
5921.0,5921.0,0.0,0.0,0.0,65.12,0,0,0.03,0.1,-0.99,3.71,-3.85,-2.66,-78.28,77.95,-48.68,0.0,False,0.0,0.0,0.0,0.0
5921.0,5921.0,0.0,0.0,0.0,65.12,0,0,0.03,0.1,-0.99,3.71,-3.85,-2.66,-78.28,77.95,-48.68,0.0,False,0.0,0.0,0.0,0.0
5941.0,5941.0,0.0,0.0,0.0,64.89,0,0,0.03,0.1,-1.0,3.92,-4.13,-2.59,-77.93,78.24,-48.29,0.0,False,0.0,0.0,0.0,0.0
5941.0,5941.0,0.0,0.0,0.0,64.89,0,0,0.03,0.1,-1.0,3.92,-4.13,-2.59,-77.93,78.24,-48.29,0.0,False,0.0,0.0,0.0,0.0
5941.0,5941.0,0.0,0.0,0.0,64.89,0,0,0.03,0.1,-1.0,3.92,-4.13,-2.59,-77.93,78.24,-48.29,0.0,False,0.0,0.0,0.0,0.0
5941.0,5941.0,0.0,0.0,0.0,64.89,0,0,0.03,0.1,-1.0,3.92,-4.13,-2.59,-77.93,78.24,-48.29,0.0,False,0.0,0.0,0.0,0.0
5961.0,5961.0,0.0,0.0,0.0,64.89,0,0,0.03,0.09,-0.99,3.78,-3.92,-3.01,-77.93,78.24,-48.29,0.0,False,0.0,0.0,0.0,0.0
5961.0,5961.0,0.0,0.0,0.0,64.89,0,0,0.03,0.09,-0.99,3.78,-3.92,-3.01,-77.93,78.24,-48.29,0.0,False,0.0,0.0,0.0,0.0
5961.0,5961.0,0.0,0.0,0.0,64.89,0,0,0.03,0.09,-0.99,3.78,-3.92,-3.01,-77.93,78.24,-48.29,0.0,False,0.0,0.0,0.0,0.0
5961.0,5961.0,0.0,0.0,0.0,64.89,0,0,0.03,0.09,-0.99,3.78,-3.92,-3.01,-77.93,78.24,-48.29,0.0,False,0.0,0.0,0.0,0.0
5981.0,5981.0,0.0,0.0,0.0,64.89,0,0,0.03,0.09,-0.99,3.71,-4.13,-2.59,-77.93,78.24,-48.29,0.0,False,0.0,0.0,0.0,0.0
5981.0,5981.0,0.0,0.0,0.0,64.89,0,0,0.03,0.09,-0.99,3.71,-4.13,-2.59,-77.93,78.24,-48.29,0.0,False,0.0,0.0,0.0,0.0
5981.0,5981.0,0.0,0.0,0.0,64.89,0,0,0.03,0.09,-0.99,3.71,-4.13,-2.59,-77.93,78.24,-48.29,0.0,False,0.0,0.0,0.0,0.0
5981.0,5981.0,0.0,0.0,0.0,64.89,0,0,0.03,0.09,-0.99,3.71,-4.13,-2.59,-77.93,78.24,-48.29,0.0,False,0.0,0.0,0.0,0.0
6001.0,6001.0,0.0,0.0,0.0,64.89,0,0,0.03,0.09,-0.99,3.71,-3.99,-2.73,-77.93,78.24,-48.29,0.0,False,0.0,0.0,0.0,0.0
6001.0,6001.0,0.0,0.0,0.0,64.89,0,0,0.03,0.09,-0.99,3.71,-3.99,-2.73,-77.93,78.24,-48.29,0.0,False,0.0,0.0,0.0,0.0
6001.0,6001.0,0.0,0.0,0.0,64.89,0,0,0.03,0.09,-0.99,3.71,-3.99,-2.73,-77.93,78.24,-48.29,0.0,False,0.0,0.0,0.0,0.0
6001.0,6001.0,0.0,0.0,0.0,64.89,0,0,0.03,0.09,-0.99,3.71,-3.99,-2.73,-77.93,78.24,-48.29,0.0,False,0.0,0.0,0.0,0.0
6001.0,6001.0,0.0,0.0,0.0,64.89,0,0,0.03,0.09,-0.99,3.71,-3.99,-2.73,-77.93,78.24,-48.29,0.0,False,0.0,0.0,0.0,0.0
6024.0,6024.0,0.0,0.0,0.0,64.89,0,0,0.03,0.09,-0.99,3.78,-3.92,-2.66,-77.93,78.24,-48.29,0.0,False,0.0,0.0,0.0,0.0
6024.0,6024.0,0.0,0.0,0.0,64.89,0,0,0.03,0.09,-0.99,3.78,-3.92,-2.66,-77.93,78.24,-48.29,0.0,False,0.0,0.0,0.0,0.0
6024.0,6024.0,0.0,0.0,0.0,64.89,0,0,0.03,0.09,-0.99,3.78,-3.92,-2.66,-77.93,78.24,-48.29,0.0,False,0.0,0.0,0.0,0.0
6024.0,6024.0,0.0,0.0,0.0,64.89,0,0,0.03,0.09,-0.99,3.78,-3.92,-2.66,-77.93,78.24,-48.29,0.0,False,0.0,0.0,0.0,0.0
6044.0,6044.0,0.0,0.0,0.0,64.81,0,0,0.03,0.09,-0.99,3.85,-4.13,-2.73,-77.26,77.77,-48.92,0.0,False,0.0,0.0,0.0,0.0
6044.0,6044.0,0.0,0.0,0.0,64.81,0,0,0.03,0.09,-0.99,3.85,-4.13,-2.73,-77.26,77.77,-48.92,0.0,False,0.0,0.0,0.0,0.0
6044.0,6044.0,0.0,0.0,0.0,64.81,0,0,0.03,0.09,-0.99,3.85,-4.13,-2.73,-77.26,77.77,-48.92,0.0,False,0.0,0.0,0.0,0.0
6044.0,6044.0,0.0,0.0,0.0,64.81,0,0,0.03,0.09,-0.99,3.85,-4.13,-2.73,-77.26,77.77,-48.92,0.0,False,0.0,0.0,0.0,0.0
6044.0,6044.0,0.0,0.0,0.0,64.81,0,0,0.03,0.09,-0.99,3.85,-4.13,-2.73,-77.26,77.77,-48.92,0.0,False,0.0,0.0,0.0,0.0
6067.0,6067.0,0.0,0.0,0.0,64.81,0,0,0.03,0.1,-0.99,3.85,-4.06,-2.59,-77.26,77.77,-48.92,0.0,False,0.0,0.0,0.0,0.0
6067.0,6067.0,0.0,0.0,0.0,64.81,0,0,0.03,0.1,-0.99,3.85,-4.06,-2.59,-77.26,77.77,-48.92,0.0,False,0.0,0.0,0.0,0.0
6067.0,6067.0,0.0,0.0,0.0,64.81,0,0,0.03,0.1,-0.99,3.85,-4.06,-2.59,-77.26,77.77,-48.92,0.0,False,0.0,0.0,0.0,0.0
6067.0,6067.0,0.0,0.0,0.0,64.81,0,0,0.03,0.1,-0.99,3.85,-4.06,-2.59,-77.26,77.77,-48.92,0.0,False,0.0,0.0,0.0,0.0
6067.0,6067.0,0.0,0.0,0.0,64.81,0,0,0.03,0.1,-0.99,3.85,-4.06,-2.59,-77.26,77.77,-48.92,0.0,False,0.0,0.0,0.0,0.0
6089.0,6089.0,0.0,0.0,0.0,64.81,0,0,0.03,0.09,-0.99,3.64,-3.99,-2.73,-77.26,77.77,-48.92,0.0,False,0.0,0.0,0.0,0.0
6089.0,6089.0,0.0,0.0,0.0,64.81,0,0,0.03,0.09,-0.99,3.64,-3.99,-2.73,-77.26,77.77,-48.92,0.0,False,0.0,0.0,0.0,0.0
6089.0,6089.0,0.0,0.0,0.0,64.81,0,0,0.03,0.09,-0.99,3.64,-3.99,-2.73,-77.26,77.77,-48.92,0.0,False,0.0,0.0,0.0,0.0
6089.0,6089.0,0.0,0.0,0.0,64.81,0,0,0.03,0.09,-0.99,3.64,-3.99,-2.73,-77.26,77.77,-48.92,0.0,False,0.0,0.0,0.0,0.0
6109.0,6109.0,0.0,0.0,0.0,64.81,0,0,0.03,0.09,-0.99,3.71,-4.2,-2.87,-77.26,77.77,-48.92,0.0,False,0.0,0.0,0.0,0.0
6109.0,6109.0,0.0,0.0,0.0,64.81,0,0,0.03,0.09,-0.99,3.71,-4.2,-2.87,-77.26,77.77,-48.92,0.0,False,0.0,0.0,0.0,0.0
6109.0,6109.0,0.0,0.0,0.0,64.81,0,0,0.03,0.09,-0.99,3.71,-4.2,-2.87,-77.26,77.77,-48.92,0.0,False,0.0,0.0,0.0,0.0
6109.0,6109.0,0.0,0.0,0.0,64.81,0,0,0.03,0.09,-0.99,3.71,-4.2,-2.87,-77.26,77.77,-48.92,0.0,False,0.0,0.0,0.0,0.0
6129.0,6129.0,0.0,0.0,0.0,64.81,0,0,0.03,0.09,-0.99,3.78,-4.06,-2.66,-77.26,77.77,-48.92,0.0,False,0.0,0.0,0.0,0.0
6129.0,6129.0,0.0,0.0,0.0,64.81,0,0,0.03,0.09,-0.99,3.78,-4.06,-2.66,-77.26,77.77,-48.92,0.0,False,0.0,0.0,0.0,0.0
6129.0,6129.0,0.0,0.0,0.0,64.81,0,0,0.03,0.09,-0.99,3.78,-4.06,-2.66,-77.26,77.77,-48.92,0.0,False,0.0,0.0,0.0,0.0
6129.0,6129.0,0.0,0.0,0.0,64.81,0,0,0.03,0.09,-0.99,3.78,-4.06,-2.66,-77.26,77.77,-48.92,0.0,False,0.0,0.0,0.0,0.0
6149.0,6149.0,0.0,0.0,0.0,65.03,0,0,0.03,0.09,-0.99,3.85,-4.2,-2.73,-77.61,77.52,-48.83,0.0,False,0.0,0.0,0.0,0.0
6149.0,6149.0,0.0,0.0,0.0,65.03,0,0,0.03,0.09,-0.99,3.85,-4.2,-2.73,-77.61,77.52,-48.83,0.0,False,0.0,0.0,0.0,0.0
6149.0,6149.0,0.0,0.0,0.0,65.03,0,0,0.03,0.09,-0.99,3.85,-4.2,-2.73,-77.61,77.52,-48.83,0.0,False,0.0,0.0,0.0,0.0
6149.0,6149.0,0.0,0.0,0.0,65.03,0,0,0.03,0.09,-0.99,3.85,-4.2,-2.73,-77.61,77.52,-48.83,0.0,False,0.0,0.0,0.0,0.0
6169.0,6169.0,0.0,0.0,0.0,65.03,0,0,0.03,0.09,-0.99,3.85,-4.06,-2.87,-77.61,77.52,-48.83,0.0,False,0.0,0.0,0.0,0.0
6169.0,6169.0,0.0,0.0,0.0,65.03,0,0,0.03,0.09,-0.99,3.85,-4.06,-2.87,-77.61,77.52,-48.83,0.0,False,0.0,0.0,0.0,0.0
6169.0,6169.0,0.0,0.0,0.0,65.03,0,0,0.03,0.09,-0.99,3.85,-4.06,-2.87,-77.61,77.52,-48.83,0.0,False,0.0,0.0,0.0,0.0
6169.0,6169.0,0.0,0.0,0.0,65.03,0,0,0.03,0.09,-0.99,3.85,-4.06,-2.87,-77.61,77.52,-48.83,0.0,False,0.0,0.0,0.0,0.0
6169.0,6169.0,0.0,0.0,0.0,65.03,0,0,0.03,0.09,-0.99,3.85,-4.06,-2.87,-77.61,77.52,-48.83,0.0,False,0.0,0.0,0.0,0.0
6192.0,6192.0,0.0,0.0,0.0,65.03,0,0,0.03,0.1,-0.99,3.78,-4.06,-2.8,-77.61,77.52,-48.83,0.0,False,0.0,0.0,0.0,0.0
6192.0,6192.0,0.0,0.0,0.0,65.03,0,0,0.03,0.1,-0.99,3.78,-4.06,-2.8,-77.61,77.52,-48.83,0.0,False,0.0,0.0,0.0,0.0
6192.0,6192.0,0.0,0.0,0.0,65.03,0,0,0.03,0.1,-0.99,3.78,-4.06,-2.8,-77.61,77.52,-48.83,0.0,False,0.0,0.0,0.0,0.0
6192.0,6192.0,0.0,0.0,0.0,65.03,0,0,0.03,0.1,-0.99,3.78,-4.06,-2.8,-77.61,77.52,-48.83,0.0,False,0.0,0.0,0.0,0.0
6192.0,6192.0,0.0,0.0,0.0,65.03,0,0,0.03,0.1,-0.99,3.78,-4.06,-2.8,-77.61,77.52,-48.83,0.0,False,0.0,0.0,0.0,0.0
6214.0,6214.0,0.0,0.0,0.0,65.03,0,0,0.03,0.09,-0.99,3.71,-4.06,-2.73,-77.61,77.52,-48.83,0.0,False,0.0,0.0,0.0,0.0
6214.0,6214.0,0.0,0.0,0.0,65.03,0,0,0.03,0.09,-0.99,3.71,-4.06,-2.73,-77.61,77.52,-48.83,0.0,False,0.0,0.0,0.0,0.0
6214.0,6214.0,0.0,0.0,0.0,65.03,0,0,0.03,0.09,-0.99,3.71,-4.06,-2.73,-77.61,77.52,-48.83,0.0,False,0.0,0.0,0.0,0.0
6214.0,6214.0,0.0,0.0,0.0,65.03,0,0,0.03,0.09,-0.99,3.71,-4.06,-2.73,-77.61,77.52,-48.83,0.0,False,0.0,0.0,0.0,0.0
6214.0,6214.0,0.0,0.0,0.0,65.03,0,0,0.03,0.09,-0.99,3.71,-4.06,-2.73,-77.61,77.52,-48.83,0.0,False,0.0,0.0,0.0,0.0
6236.0,6236.0,0.0,0.0,0.0,65.09,0,0,0.04,0.09,-0.99,3.71,-4.06,-2.66,-78.38,78.15,-48.04,0.0,False,0.0,0.0,0.0,0.0
6236.0,6236.0,0.0,0.0,0.0,65.09,0,0,0.04,0.09,-0.99,3.71,-4.06,-2.66,-78.38,78.15,-48.04,0.0,False,0.0,0.0,0.0,0.0
6236.0,6236.0,0.0,0.0,0.0,65.09,0,0,0.04,0.09,-0.99,3.71,-4.06,-2.66,-78.38,78.15,-48.04,0.0,False,0.0,0.0,0.0,0.0
6236.0,6236.0,0.0,0.0,0.0,65.09,0,0,0.04,0.09,-0.99,3.71,-4.06,-2.66,-78.38,78.15,-48.04,0.0,False,0.0,0.0,0.0,0.0
6256.0,6256.0,0.0,0.0,0.0,65.09,0,0,0.03,0.09,-1.0,3.71,-3.99,-2.66,-78.38,78.15,-48.04,0.0,False,0.0,0.0,0.0,0.0
6256.0,6256.0,0.0,0.0,0.0,65.09,0,0,0.03,0.09,-1.0,3.71,-3.99,-2.66,-78.38,78.15,-48.04,0.0,False,0.0,0.0,0.0,0.0
6256.0,6256.0,0.0,0.0,0.0,65.09,0,0,0.03,0.09,-1.0,3.71,-3.99,-2.66,-78.38,78.15,-48.04,0.0,False,0.0,0.0,0.0,0.0
6256.0,6256.0,0.0,0.0,0.0,65.09,0,0,0.03,0.09,-1.0,3.71,-3.99,-2.66,-78.38,78.15,-48.04,0.0,False,0.0,0.0,0.0,0.0
6276.0,6276.0,0.0,0.0,0.0,65.09,0,0,0.03,0.09,-0.99,3.85,-4.06,-2.73,-78.38,78.15,-48.04,0.0,False,0.0,0.0,0.0,0.0
6276.0,6276.0,0.0,0.0,0.0,65.09,0,0,0.03,0.09,-0.99,3.85,-4.06,-2.73,-78.38,78.15,-48.04,0.0,False,0.0,0.0,0.0,0.0
6276.0,6276.0,0.0,0.0,0.0,65.09,0,0,0.03,0.09,-0.99,3.85,-4.06,-2.73,-78.38,78.15,-48.04,0.0,False,0.0,0.0,0.0,0.0
6276.0,6276.0,0.0,0.0,0.0,65.09,0,0,0.03,0.09,-0.99,3.85,-4.06,-2.73,-78.38,78.15,-48.04,0.0,False,0.0,0.0,0.0,0.0
6296.0,6296.0,0.0,0.0,0.0,65.09,0,0,0.03,0.1,-0.99,3.78,-3.99,-2.73,-78.38,78.15,-48.04,0.0,False,0.0,0.0,0.0,0.0
6296.0,6296.0,0.0,0.0,0.0,65.09,0,0,0.03,0.1,-0.99,3.78,-3.99,-2.73,-78.38,78.15,-48.04,0.0,False,0.0,0.0,0.0,0.0
6296.0,6296.0,0.0,0.0,0.0,65.09,0,0,0.03,0.1,-0.99,3.78,-3.99,-2.73,-78.38,78.15,-48.04,0.0,False,0.0,0.0,0.0,0.0
6296.0,6296.0,0.0,0.0,0.0,65.09,0,0,0.03,0.1,-0.99,3.78,-3.99,-2.73,-78.38,78.15,-48.04,0.0,False,0.0,0.0,0.0,0.0
6296.0,6296.0,0.0,0.0,0.0,65.09,0,0,0.03,0.1,-0.99,3.78,-3.99,-2.73,-78.38,78.15,-48.04,0.0,False,0.0,0.0,0.0,0.0
6319.0,6319.0,0.0,0.0,0.0,65.09,0,0,0.03,0.09,-1.0,3.71,-3.99,-2.87,-78.38,78.15,-48.04,0.0,False,0.0,0.0,0.0,0.0
6319.0,6319.0,0.0,0.0,0.0,65.09,0,0,0.03,0.09,-1.0,3.71,-3.99,-2.87,-78.38,78.15,-48.04,0.0,False,0.0,0.0,0.0,0.0
6319.0,6319.0,0.0,0.0,0.0,65.09,0,0,0.03,0.09,-1.0,3.71,-3.99,-2.87,-78.38,78.15,-48.04,0.0,False,0.0,0.0,0.0,0.0
6319.0,6319.0,0.0,0.0,0.0,65.09,0,0,0.03,0.09,-1.0,3.71,-3.99,-2.87,-78.38,78.15,-48.04,0.0,False,0.0,0.0,0.0,0.0
6339.0,6339.0,0.0,0.0,0.0,64.92,0,0,0.03,0.09,-1.0,3.78,-3.99,-2.66,-77.8,78.0,-48.13,0.0,False,0.0,0.0,0.0,0.0
6339.0,6339.0,0.0,0.0,0.0,64.92,0,0,0.03,0.09,-1.0,3.78,-3.99,-2.66,-77.8,78.0,-48.13,0.0,False,0.0,0.0,0.0,0.0
6339.0,6339.0,0.0,0.0,0.0,64.92,0,0,0.03,0.09,-1.0,3.78,-3.99,-2.66,-77.8,78.0,-48.13,0.0,False,0.0,0.0,0.0,0.0
6339.0,6339.0,0.0,0.0,0.0,64.92,0,0,0.03,0.09,-1.0,3.78,-3.99,-2.66,-77.8,78.0,-48.13,0.0,False,0.0,0.0,0.0,0.0
6339.0,6339.0,0.0,0.0,0.0,64.92,0,0,0.03,0.09,-1.0,3.78,-3.99,-2.66,-77.8,78.0,-48.13,0.0,False,0.0,0.0,0.0,0.0
6362.0,6362.0,0.0,0.0,0.0,64.92,0,0,0.03,0.09,-0.99,3.85,-4.06,-2.73,-77.8,78.0,-48.13,0.0,False,0.0,0.0,0.0,0.0
6362.0,6362.0,0.0,0.0,0.0,64.92,0,0,0.03,0.09,-0.99,3.85,-4.06,-2.73,-77.8,78.0,-48.13,0.0,False,0.0,0.0,0.0,0.0
6362.0,6362.0,0.0,0.0,0.0,64.92,0,0,0.03,0.09,-0.99,3.85,-4.06,-2.73,-77.8,78.0,-48.13,0.0,False,0.0,0.0,0.0,0.0
6362.0,6362.0,0.0,0.0,0.0,64.92,0,0,0.03,0.09,-0.99,3.85,-4.06,-2.73,-77.8,78.0,-48.13,0.0,False,0.0,0.0,0.0,0.0
6362.0,6362.0,0.0,0.0,0.0,64.92,0,0,0.03,0.09,-0.99,3.85,-4.06,-2.73,-77.8,78.0,-48.13,0.0,False,0.0,0.0,0.0,0.0
6385.0,6385.0,0.0,0.0,0.0,64.92,0,0,0.03,0.09,-1.0,3.71,-4.2,-2.8,-77.8,78.0,-48.13,0.0,False,0.0,0.0,0.0,0.0
6385.0,6385.0,0.0,0.0,0.0,64.92,0,0,0.03,0.09,-1.0,3.71,-4.2,-2.8,-77.8,78.0,-48.13,0.0,False,0.0,0.0,0.0,0.0
6385.0,6385.0,0.0,0.0,0.0,64.92,0,0,0.03,0.09,-1.0,3.71,-4.2,-2.8,-77.8,78.0,-48.13,0.0,False,0.0,0.0,0.0,0.0
6385.0,6385.0,0.0,0.0,0.0,64.92,0,0,0.03,0.09,-1.0,3.71,-4.2,-2.8,-77.8,78.0,-48.13,0.0,False,0.0,0.0,0.0,0.0
6385.0,6385.0,0.0,0.0,0.0,64.92,0,0,0.03,0.09,-1.0,3.71,-4.2,-2.8,-77.8,78.0,-48.13,0.0,False,0.0,0.0,0.0,0.0
6408.0,6408.0,0.0,0.0,0.0,64.92,0,0,0.03,0.09,-0.99,3.78,-4.06,-2.73,-77.8,78.0,-48.13,0.0,False,0.0,0.0,0.0,0.0
6408.0,6408.0,0.0,0.0,0.0,64.92,0,0,0.03,0.09,-0.99,3.78,-4.06,-2.73,-77.8,78.0,-48.13,0.0,False,0.0,0.0,0.0,0.0
6408.0,6408.0,0.0,0.0,0.0,64.92,0,0,0.03,0.09,-0.99,3.78,-4.06,-2.73,-77.8,78.0,-48.13,0.0,False,0.0,0.0,0.0,0.0
6408.0,6408.0,0.0,0.0,0.0,64.92,0,0,0.03,0.09,-0.99,3.78,-4.06,-2.73,-77.8,78.0,-48.13,0.0,False,0.0,0.0,0.0,0.0
6408.0,6408.0,0.0,0.0,0.0,64.92,0,0,0.03,0.09,-0.99,3.78,-4.06,-2.73,-77.8,78.0,-48.13,0.0,False,0.0,0.0,0.0,0.0
6431.0,6431.0,0.0,0.0,0.0,64.92,0,0,0.03,0.09,-0.99,3.78,-4.06,-2.87,-78.19,77.74,-48.55,0.0,False,0.0,0.0,0.0,0.0
6431.0,6431.0,0.0,0.0,0.0,64.92,0,0,0.03,0.09,-0.99,3.78,-4.06,-2.87,-78.19,77.74,-48.55,0.0,False,0.0,0.0,0.0,0.0
6431.0,6431.0,0.0,0.0,0.0,64.92,0,0,0.03,0.09,-0.99,3.78,-4.06,-2.87,-78.19,77.74,-48.55,0.0,False,0.0,0.0,0.0,0.0
6431.0,6431.0,0.0,0.0,0.0,64.92,0,0,0.03,0.09,-0.99,3.78,-4.06,-2.87,-78.19,77.74,-48.55,0.0,False,0.0,0.0,0.0,0.0
6451.0,6451.0,0.0,0.0,0.0,65.17,0,0,0.03,0.09,-0.99,4.06,-4.13,-2.73,-78.19,77.74,-48.55,0.0,False,0.0,0.0,0.0,0.0
6451.0,6451.0,0.0,0.0,0.0,65.17,0,0,0.03,0.09,-0.99,4.06,-4.13,-2.73,-78.19,77.74,-48.55,0.0,False,0.0,0.0,0.0,0.0
6451.0,6451.0,0.0,0.0,0.0,65.17,0,0,0.03,0.09,-0.99,4.06,-4.13,-2.73,-78.19,77.74,-48.55,0.0,False,0.0,0.0,0.0,0.0
6451.0,6451.0,0.0,0.0,0.0,65.17,0,0,0.03,0.09,-0.99,4.06,-4.13,-2.73,-78.19,77.74,-48.55,0.0,False,0.0,0.0,0.0,0.0
6451.0,6451.0,0.0,0.0,0.0,65.17,0,0,0.03,0.09,-0.99,4.06,-4.13,-2.73,-78.19,77.74,-48.55,0.0,False,0.0,0.0,0.0,0.0
6474.0,6474.0,0.0,0.0,0.0,65.17,0,0,0.03,0.09,-0.99,3.78,-3.85,-2.87,-78.19,77.74,-48.55,0.0,False,0.0,0.0,0.0,0.0
6474.0,6474.0,0.0,0.0,0.0,65.17,0,0,0.03,0.09,-0.99,3.78,-3.85,-2.87,-78.19,77.74,-48.55,0.0,False,0.0,0.0,0.0,0.0
6474.0,6474.0,0.0,0.0,0.0,65.17,0,0,0.03,0.09,-0.99,3.78,-3.85,-2.87,-78.19,77.74,-48.55,0.0,False,0.0,0.0,0.0,0.0
6474.0,6474.0,0.0,0.0,0.0,65.17,0,0,0.03,0.09,-0.99,3.78,-3.85,-2.87,-78.19,77.74,-48.55,0.0,False,0.0,0.0,0.0,0.0
6494.0,6494.0,0.0,0.0,0.0,65.17,0,0,0.03,0.09,-1.0,3.85,-4.13,-2.73,-78.19,77.74,-48.55,0.0,False,0.0,0.0,0.0,0.0
6494.0,6494.0,0.0,0.0,0.0,65.17,0,0,0.03,0.09,-1.0,3.85,-4.13,-2.73,-78.19,77.74,-48.55,0.0,False,0.0,0.0,0.0,0.0
6494.0,6494.0,0.0,0.0,0.0,65.17,0,0,0.03,0.09,-1.0,3.85,-4.13,-2.73,-78.19,77.74,-48.55,0.0,False,0.0,0.0,0.0,0.0
6494.0,6494.0,0.0,0.0,0.0,65.17,0,0,0.03,0.09,-1.0,3.85,-4.13,-2.73,-78.19,77.74,-48.55,0.0,False,0.0,0.0,0.0,0.0
6494.0,6494.0,0.0,0.0,0.0,65.17,0,0,0.03,0.09,-1.0,3.85,-4.13,-2.73,-78.19,77.74,-48.55,0.0,False,0.0,0.0,0.0,0.0
6517.0,6517.0,0.0,0.0,0.0,65.17,0,0,0.02,0.09,-1.0,3.92,-3.99,-2.59,-78.19,77.74,-48.55,0.0,False,0.0,0.0,0.0,0.0
6517.0,6517.0,0.0,0.0,0.0,65.17,0,0,0.02,0.09,-1.0,3.92,-3.99,-2.59,-78.19,77.74,-48.55,0.0,False,0.0,0.0,0.0,0.0
6517.0,6517.0,0.0,0.0,0.0,65.17,0,0,0.02,0.09,-1.0,3.92,-3.99,-2.59,-78.19,77.74,-48.55,0.0,False,0.0,0.0,0.0,0.0
6517.0,6517.0,0.0,0.0,0.0,65.17,0,0,0.02,0.09,-1.0,3.92,-3.99,-2.59,-78.19,77.74,-48.55,0.0,False,0.0,0.0,0.0,0.0
6517.0,6517.0,0.0,0.0,0.0,65.17,0,0,0.02,0.09,-1.0,3.92,-3.99,-2.59,-78.19,77.74,-48.55,0.0,False,0.0,0.0,0.0,0.0
6540.0,6540.0,0.0,0.0,0.0,64.88,0,0,0.03,0.09,-0.99,3.85,-4.13,-2.73,-77.36,77.68,-48.33,0.0,False,0.0,0.0,0.0,0.0
6540.0,6540.0,0.0,0.0,0.0,64.88,0,0,0.03,0.09,-0.99,3.85,-4.13,-2.73,-77.36,77.68,-48.33,0.0,False,0.0,0.0,0.0,0.0
6540.0,6540.0,0.0,0.0,0.0,64.88,0,0,0.03,0.09,-0.99,3.85,-4.13,-2.73,-77.36,77.68,-48.33,0.0,False,0.0,0.0,0.0,0.0
6540.0,6540.0,0.0,0.0,0.0,64.88,0,0,0.03,0.09,-0.99,3.85,-4.13,-2.73,-77.36,77.68,-48.33,0.0,False,0.0,0.0,0.0,0.0
6540.0,6540.0,0.0,0.0,0.0,64.88,0,0,0.03,0.09,-0.99,3.85,-4.13,-2.73,-77.36,77.68,-48.33,0.0,False,0.0,0.0,0.0,0.0
6563.0,6563.0,0.0,0.0,0.0,64.88,0,0,0.03,0.09,-0.99,3.85,-4.2,-2.94,-77.36,77.68,-48.33,0.0,False,0.0,0.0,0.0,0.0
6563.0,6563.0,0.0,0.0,0.0,64.88,0,0,0.03,0.09,-0.99,3.85,-4.2,-2.94,-77.36,77.68,-48.33,0.0,False,0.0,0.0,0.0,0.0
6563.0,6563.0,0.0,0.0,0.0,64.88,0,0,0.03,0.09,-0.99,3.85,-4.2,-2.94,-77.36,77.68,-48.33,0.0,False,0.0,0.0,0.0,0.0
6563.0,6563.0,0.0,0.0,0.0,64.88,0,0,0.03,0.09,-0.99,3.85,-4.2,-2.94,-77.36,77.68,-48.33,0.0,False,0.0,0.0,0.0,0.0
6583.0,6583.0,0.0,0.0,0.0,64.88,0,0,0.03,0.09,-0.99,3.92,-4.06,-2.8,-77.36,77.68,-48.33,0.0,False,0.0,0.0,0.0,0.0
6583.0,6583.0,0.0,0.0,0.0,64.88,0,0,0.03,0.09,-0.99,3.92,-4.06,-2.8,-77.36,77.68,-48.33,0.0,False,0.0,0.0,0.0,0.0
6583.0,6583.0,0.0,0.0,0.0,64.88,0,0,0.03,0.09,-0.99,3.92,-4.06,-2.8,-77.36,77.68,-48.33,0.0,False,0.0,0.0,0.0,0.0
6583.0,6583.0,0.0,0.0,0.0,64.88,0,0,0.03,0.09,-0.99,3.92,-4.06,-2.8,-77.36,77.68,-48.33,0.0,False,0.0,0.0,0.0,0.0
6583.0,6583.0,0.0,0.0,0.0,64.88,0,0,0.03,0.09,-0.99,3.92,-4.06,-2.8,-77.36,77.68,-48.33,0.0,False,0.0,0.0,0.0,0.0
6606.0,6606.0,0.0,0.0,0.0,64.88,0,0,0.03,0.09,-0.99,3.85,-3.92,-2.87,-77.36,77.68,-48.33,0.0,False,0.0,0.0,0.0,0.0
6606.0,6606.0,0.0,0.0,0.0,64.88,0,0,0.03,0.09,-0.99,3.85,-3.92,-2.87,-77.36,77.68,-48.33,0.0,False,0.0,0.0,0.0,0.0
6606.0,6606.0,0.0,0.0,0.0,64.88,0,0,0.03,0.09,-0.99,3.85,-3.92,-2.87,-77.36,77.68,-48.33,0.0,False,0.0,0.0,0.0,0.0
6606.0,6606.0,0.0,0.0,0.0,64.88,0,0,0.03,0.09,-0.99,3.85,-3.92,-2.87,-77.36,77.68,-48.33,0.0,False,0.0,0.0,0.0,0.0
6606.0,6606.0,0.0,0.0,0.0,64.88,0,0,0.03,0.09,-0.99,3.85,-3.92,-2.87,-77.36,77.68,-48.33,0.0,False,0.0,0.0,0.0,0.0
6629.0,6629.0,0.0,0.0,0.0,64.88,0,0,0.03,0.09,-1.0,3.78,-4.13,-2.8,-77.29,78.28,-48.7,0.0,False,0.0,0.0,0.0,0.0
6629.0,6629.0,0.0,0.0,0.0,64.88,0,0,0.03,0.09,-1.0,3.78,-4.13,-2.8,-77.29,78.28,-48.7,0.0,False,0.0,0.0,0.0,0.0
6629.0,6629.0,0.0,0.0,0.0,64.88,0,0,0.03,0.09,-1.0,3.78,-4.13,-2.8,-77.29,78.28,-48.7,0.0,False,0.0,0.0,0.0,0.0
6629.0,6629.0,0.0,0.0,0.0,64.88,0,0,0.03,0.09,-1.0,3.78,-4.13,-2.8,-77.29,78.28,-48.7,0.0,False,0.0,0.0,0.0,0.0
6649.0,6649.0,0.0,0.0,0.0,64.63,0,0,0.03,0.09,-0.99,3.71,-3.71,-2.66,-77.29,78.28,-48.7,0.0,False,0.0,0.0,0.0,0.0
6649.0,6649.0,0.0,0.0,0.0,64.63,0,0,0.03,0.09,-0.99,3.71,-3.71,-2.66,-77.29,78.28,-48.7,0.0,False,0.0,0.0,0.0,0.0
6649.0,6649.0,0.0,0.0,0.0,64.63,0,0,0.03,0.09,-0.99,3.71,-3.71,-2.66,-77.29,78.28,-48.7,0.0,False,0.0,0.0,0.0,0.0
6649.0,6649.0,0.0,0.0,0.0,64.63,0,0,0.03,0.09,-0.99,3.71,-3.71,-2.66,-77.29,78.28,-48.7,0.0,False,0.0,0.0,0.0,0.0
6649.0,6649.0,0.0,0.0,0.0,64.63,0,0,0.03,0.09,-0.99,3.71,-3.71,-2.66,-77.29,78.28,-48.7,0.0,False,0.0,0.0,0.0,0.0
6672.0,6672.0,0.0,0.0,0.0,64.63,0,0,0.03,0.09,-1.0,3.78,-3.92,-2.87,-77.29,78.28,-48.7,0.0,False,0.0,0.0,0.0,0.0
6672.0,6672.0,0.0,0.0,0.0,64.63,0,0,0.03,0.09,-1.0,3.78,-3.92,-2.87,-77.29,78.28,-48.7,0.0,False,0.0,0.0,0.0,0.0
6672.0,6672.0,0.0,0.0,0.0,64.63,0,0,0.03,0.09,-1.0,3.78,-3.92,-2.87,-77.29,78.28,-48.7,0.0,False,0.0,0.0,0.0,0.0
6672.0,6672.0,0.0,0.0,0.0,64.63,0,0,0.03,0.09,-1.0,3.78,-3.92,-2.87,-77.29,78.28,-48.7,0.0,False,0.0,0.0,0.0,0.0
6692.0,6692.0,0.0,0.0,0.0,64.63,0,0,0.03,0.09,-0.99,3.85,-4.06,-2.66,-77.29,78.28,-48.7,0.0,False,0.0,0.0,0.0,0.0
6692.0,6692.0,0.0,0.0,0.0,64.63,0,0,0.03,0.09,-0.99,3.85,-4.06,-2.66,-77.29,78.28,-48.7,0.0,False,0.0,0.0,0.0,0.0
6692.0,6692.0,0.0,0.0,0.0,64.63,0,0,0.03,0.09,-0.99,3.85,-4.06,-2.66,-77.29,78.28,-48.7,0.0,False,0.0,0.0,0.0,0.0
6692.0,6692.0,0.0,0.0,0.0,64.63,0,0,0.03,0.09,-0.99,3.85,-4.06,-2.66,-77.29,78.28,-48.7,0.0,False,0.0,0.0,0.0,0.0
6692.0,6692.0,0.0,0.0,0.0,64.63,0,0,0.03,0.09,-0.99,3.85,-4.06,-2.66,-77.29,78.28,-48.7,0.0,False,0.0,0.0,0.0,0.0
6715.0,6715.0,0.0,0.0,0.0,64.63,0,0,0.03,0.09,-0.99,3.85,-4.06,-2.73,-77.29,78.28,-48.7,0.0,False,0.0,0.0,0.0,0.0
6715.0,6715.0,0.0,0.0,0.0,64.63,0,0,0.03,0.09,-0.99,3.85,-4.06,-2.73,-77.29,78.28,-48.7,0.0,False,0.0,0.0,0.0,0.0
6715.0,6715.0,0.0,0.0,0.0,64.63,0,0,0.03,0.09,-0.99,3.85,-4.06,-2.73,-77.29,78.28,-48.7,0.0,False,0.0,0.0,0.0,0.0
6715.0,6715.0,0.0,0.0,0.0,64.63,0,0,0.03,0.09,-0.99,3.85,-4.06,-2.73,-77.29,78.28,-48.7,0.0,False,0.0,0.0,0.0,0.0
6715.0,6715.0,0.0,0.0,0.0,64.63,0,0,0.03,0.09,-0.99,3.85,-4.06,-2.73,-77.29,78.28,-48.7,0.0,False,0.0,0.0,0.0,0.0
6738.0,6738.0,0.0,0.0,0.0,65.01,0,0,0.03,0.09,-0.99,3.71,-4.06,-2.73,-78.22,78.19,-48.8,0.0,False,0.0,0.0,0.0,0.0
6738.0,6738.0,0.0,0.0,0.0,65.01,0,0,0.03,0.09,-0.99,3.71,-4.06,-2.73,-78.22,78.19,-48.8,0.0,False,0.0,0.0,0.0,0.0
6738.0,6738.0,0.0,0.0,0.0,65.01,0,0,0.03,0.09,-0.99,3.71,-4.06,-2.73,-78.22,78.19,-48.8,0.0,False,0.0,0.0,0.0,0.0
6738.0,6738.0,0.0,0.0,0.0,65.01,0,0,0.03,0.09,-0.99,3.71,-4.06,-2.73,-78.22,78.19,-48.8,0.0,False,0.0,0.0,0.0,0.0
6758.0,6758.0,0.0,0.0,0.0,65.01,0,0,0.03,0.09,-0.99,3.71,-4.2,-2.73,-78.22,78.19,-48.8,0.0,False,0.0,0.0,0.0,0.0
6758.0,6758.0,0.0,0.0,0.0,65.01,0,0,0.03,0.09,-0.99,3.71,-4.2,-2.73,-78.22,78.19,-48.8,0.0,False,0.0,0.0,0.0,0.0
6758.0,6758.0,0.0,0.0,0.0,65.01,0,0,0.03,0.09,-0.99,3.71,-4.2,-2.73,-78.22,78.19,-48.8,0.0,False,0.0,0.0,0.0,0.0
6758.0,6758.0,0.0,0.0,0.0,65.01,0,0,0.03,0.09,-0.99,3.71,-4.2,-2.73,-78.22,78.19,-48.8,0.0,False,0.0,0.0,0.0,0.0
6758.0,6758.0,0.0,0.0,0.0,65.01,0,0,0.03,0.09,-0.99,3.71,-4.2,-2.73,-78.22,78.19,-48.8,0.0,False,0.0,0.0,0.0,0.0
6780.0,6780.0,0.0,0.0,0.0,65.01,0,0,0.03,0.09,-0.99,3.85,-4.06,-2.59,-78.22,78.19,-48.8,0.0,False,0.0,0.0,0.0,0.0
6780.0,6780.0,0.0,0.0,0.0,65.01,0,0,0.03,0.09,-0.99,3.85,-4.06,-2.59,-78.22,78.19,-48.8,0.0,False,0.0,0.0,0.0,0.0
6780.0,6780.0,0.0,0.0,0.0,65.01,0,0,0.03,0.09,-0.99,3.85,-4.06,-2.59,-78.22,78.19,-48.8,0.0,False,0.0,0.0,0.0,0.0
6780.0,6780.0,0.0,0.0,0.0,65.01,0,0,0.03,0.09,-0.99,3.85,-4.06,-2.59,-78.22,78.19,-48.8,0.0,False,0.0,0.0,0.0,0.0
6800.0,6800.0,0.0,0.0,0.0,65.01,0,0,0.03,0.1,-0.99,3.85,-3.85,-2.8,-78.22,78.19,-48.8,0.0,False,0.0,0.0,0.0,0.0
6800.0,6800.0,0.0,0.0,0.0,65.01,0,0,0.03,0.1,-0.99,3.85,-3.85,-2.8,-78.22,78.19,-48.8,0.0,False,0.0,0.0,0.0,0.0
6800.0,6800.0,0.0,0.0,0.0,65.01,0,0,0.03,0.1,-0.99,3.85,-3.85,-2.8,-78.22,78.19,-48.8,0.0,False,0.0,0.0,0.0,0.0
6800.0,6800.0,0.0,0.0,0.0,65.01,0,0,0.03,0.1,-0.99,3.85,-3.85,-2.8,-78.22,78.19,-48.8,0.0,False,0.0,0.0,0.0,0.0
6800.0,6800.0,0.0,0.0,0.0,65.01,0,0,0.03,0.1,-0.99,3.85,-3.85,-2.8,-78.22,78.19,-48.8,0.0,False,0.0,0.0,0.0,0.0
6823.0,6823.0,0.0,0.0,0.0,65.01,0,0,0.03,0.09,-1.0,3.85,-3.99,-2.73,-78.22,78.19,-48.8,0.0,False,0.0,0.0,0.0,0.0
6823.0,6823.0,0.0,0.0,0.0,65.01,0,0,0.03,0.09,-1.0,3.85,-3.99,-2.73,-78.22,78.19,-48.8,0.0,False,0.0,0.0,0.0,0.0
6823.0,6823.0,0.0,0.0,0.0,65.01,0,0,0.03,0.09,-1.0,3.85,-3.99,-2.73,-78.22,78.19,-48.8,0.0,False,0.0,0.0,0.0,0.0
6823.0,6823.0,0.0,0.0,0.0,65.01,0,0,0.03,0.09,-1.0,3.85,-3.99,-2.73,-78.22,78.19,-48.8,0.0,False,0.0,0.0,0.0,0.0
6823.0,6823.0,0.0,0.0,0.0,65.01,0,0,0.03,0.09,-1.0,3.85,-3.99,-2.73,-78.22,78.19,-48.8,0.0,False,0.0,0.0,0.0,0.0
6846.0,6846.0,0.0,0.0,0.0,64.96,0,0,0.03,0.09,-1.0,3.85,-3.78,-2.8,-77.81,77.93,-47.6,0.0,False,0.0,0.0,0.0,0.0
6846.0,6846.0,0.0,0.0,0.0,64.96,0,0,0.03,0.09,-1.0,3.85,-3.78,-2.8,-77.81,77.93,-47.6,0.0,False,0.0,0.0,0.0,0.0
6846.0,6846.0,0.0,0.0,0.0,64.96,0,0,0.03,0.09,-1.0,3.85,-3.78,-2.8,-77.81,77.93,-47.6,0.0,False,0.0,0.0,0.0,0.0
6846.0,6846.0,0.0,0.0,0.0,64.96,0,0,0.03,0.09,-1.0,3.85,-3.78,-2.8,-77.81,77.93,-47.6,0.0,False,0.0,0.0,0.0,0.0
6846.0,6846.0,0.0,0.0,0.0,64.96,0,0,0.03,0.09,-1.0,3.85,-3.78,-2.8,-77.81,77.93,-47.6,0.0,False,0.0,0.0,0.0,0.0
6869.0,6869.0,0.0,0.0,0.0,64.96,0,0,0.03,0.09,-0.99,3.78,-3.92,-2.66,-77.81,77.93,-47.6,0.0,False,0.0,0.0,0.0,0.0
6869.0,6869.0,0.0,0.0,0.0,64.96,0,0,0.03,0.09,-0.99,3.78,-3.92,-2.66,-77.81,77.93,-47.6,0.0,False,0.0,0.0,0.0,0.0
6869.0,6869.0,0.0,0.0,0.0,64.96,0,0,0.03,0.09,-0.99,3.78,-3.92,-2.66,-77.81,77.93,-47.6,0.0,False,0.0,0.0,0.0,0.0
6869.0,6869.0,0.0,0.0,0.0,64.96,0,0,0.03,0.09,-0.99,3.78,-3.92,-2.66,-77.81,77.93,-47.6,0.0,False,0.0,0.0,0.0,0.0
6869.0,6869.0,0.0,0.0,0.0,64.96,0,0,0.03,0.09,-0.99,3.78,-3.92,-2.66,-77.81,77.93,-47.6,0.0,False,0.0,0.0,0.0,0.0
6892.0,6892.0,0.0,0.0,0.0,64.96,0,0,0.03,0.09,-1.0,3.78,-3.99,-2.66,-77.81,77.93,-47.6,0.0,False,0.0,0.0,0.0,0.0
6892.0,6892.0,0.0,0.0,0.0,64.96,0,0,0.03,0.09,-1.0,3.78,-3.99,-2.66,-77.81,77.93,-47.6,0.0,False,0.0,0.0,0.0,0.0
6892.0,6892.0,0.0,0.0,0.0,64.96,0,0,0.03,0.09,-1.0,3.78,-3.99,-2.66,-77.81,77.93,-47.6,0.0,False,0.0,0.0,0.0,0.0
6892.0,6892.0,0.0,0.0,0.0,64.96,0,0,0.03,0.09,-1.0,3.78,-3.99,-2.66,-77.81,77.93,-47.6,0.0,False,0.0,0.0,0.0,0.0
6892.0,6892.0,0.0,0.0,0.0,64.96,0,0,0.03,0.09,-1.0,3.78,-3.99,-2.66,-77.81,77.93,-47.6,0.0,False,0.0,0.0,0.0,0.0
6914.0,6914.0,0.0,0.0,0.0,64.96,0,0,0.03,0.09,-0.99,3.85,-4.06,-2.87,-77.81,77.93,-47.6,0.0,False,0.0,0.0,0.0,0.0
6914.0,6914.0,0.0,0.0,0.0,64.96,0,0,0.03,0.09,-0.99,3.85,-4.06,-2.87,-77.81,77.93,-47.6,0.0,False,0.0,0.0,0.0,0.0
6914.0,6914.0,0.0,0.0,0.0,64.96,0,0,0.03,0.09,-0.99,3.85,-4.06,-2.87,-77.81,77.93,-47.6,0.0,False,0.0,0.0,0.0,0.0
6914.0,6914.0,0.0,0.0,0.0,64.96,0,0,0.03,0.09,-0.99,3.85,-4.06,-2.87,-77.81,77.93,-47.6,0.0,False,0.0,0.0,0.0,0.0
6934.0,6934.0,0.0,0.0,0.0,64.82,0,0,0.03,0.09,-0.99,3.78,-3.99,-2.8,-77.8,78.28,-48.16,0.0,False,0.0,0.0,0.0,0.0
6934.0,6934.0,0.0,0.0,0.0,64.82,0,0,0.03,0.09,-0.99,3.78,-3.99,-2.8,-77.8,78.28,-48.16,0.0,False,0.0,0.0,0.0,0.0
6934.0,6934.0,0.0,0.0,0.0,64.82,0,0,0.03,0.09,-0.99,3.78,-3.99,-2.8,-77.8,78.28,-48.16,0.0,False,0.0,0.0,0.0,0.0
6934.0,6934.0,0.0,0.0,0.0,64.82,0,0,0.03,0.09,-0.99,3.78,-3.99,-2.8,-77.8,78.28,-48.16,0.0,False,0.0,0.0,0.0,0.0
6954.0,6954.0,0.0,0.0,0.0,64.82,0,0,0.03,0.09,-1.0,3.92,-4.13,-2.73,-77.8,78.28,-48.16,0.0,False,0.0,0.0,0.0,0.0
6954.0,6954.0,0.0,0.0,0.0,64.82,0,0,0.03,0.09,-1.0,3.92,-4.13,-2.73,-77.8,78.28,-48.16,0.0,False,0.0,0.0,0.0,0.0
6954.0,6954.0,0.0,0.0,0.0,64.82,0,0,0.03,0.09,-1.0,3.92,-4.13,-2.73,-77.8,78.28,-48.16,0.0,False,0.0,0.0,0.0,0.0
6954.0,6954.0,0.0,0.0,0.0,64.82,0,0,0.03,0.09,-1.0,3.92,-4.13,-2.73,-77.8,78.28,-48.16,0.0,False,0.0,0.0,0.0,0.0
6974.0,6974.0,0.0,0.0,0.0,64.82,0,0,0.03,0.09,-0.99,3.71,-3.85,-2.73,-77.8,78.28,-48.16,0.0,False,0.0,0.0,0.0,0.0
6974.0,6974.0,0.0,0.0,0.0,64.82,0,0,0.03,0.09,-0.99,3.71,-3.85,-2.73,-77.8,78.28,-48.16,0.0,False,0.0,0.0,0.0,0.0
6974.0,6974.0,0.0,0.0,0.0,64.82,0,0,0.03,0.09,-0.99,3.71,-3.85,-2.73,-77.8,78.28,-48.16,0.0,False,0.0,0.0,0.0,0.0
6974.0,6974.0,0.0,0.0,0.0,64.82,0,0,0.03,0.09,-0.99,3.71,-3.85,-2.73,-77.8,78.28,-48.16,0.0,False,0.0,0.0,0.0,0.0
6974.0,6974.0,0.0,0.0,0.0,64.82,0,0,0.03,0.09,-0.99,3.71,-3.85,-2.73,-77.8,78.28,-48.16,0.0,False,0.0,0.0,0.0,0.0
6996.0,6996.0,0.0,0.0,0.0,64.82,0,0,0.03,0.09,-1.0,3.92,-3.92,-2.73,-77.8,78.28,-48.16,0.0,False,0.0,0.0,0.0,0.0
6996.0,6996.0,0.0,0.0,0.0,64.82,0,0,0.03,0.09,-1.0,3.92,-3.92,-2.73,-77.8,78.28,-48.16,0.0,False,0.0,0.0,0.0,0.0
6996.0,6996.0,0.0,0.0,0.0,64.82,0,0,0.03,0.09,-1.0,3.92,-3.92,-2.73,-77.8,78.28,-48.16,0.0,False,0.0,0.0,0.0,0.0
6996.0,6996.0,0.0,0.0,0.0,64.82,0,0,0.03,0.09,-1.0,3.92,-3.92,-2.73,-77.8,78.28,-48.16,0.0,False,0.0,0.0,0.0,0.0
6996.0,6996.0,0.0,0.0,0.0,64.82,0,0,0.03,0.09,-1.0,3.92,-3.92,-2.73,-77.8,78.28,-48.16,0.0,False,0.0,0.0,0.0,0.0
7019.0,7019.0,0.0,0.0,0.0,64.82,0,0,0.03,0.1,-0.99,3.71,-3.92,-2.87,-77.8,78.28,-48.16,0.0,False,0.0,0.0,0.0,0.0
7019.0,7019.0,0.0,0.0,0.0,64.82,0,0,0.03,0.1,-0.99,3.71,-3.92,-2.87,-77.8,78.28,-48.16,0.0,False,0.0,0.0,0.0,0.0
7019.0,7019.0,0.0,0.0,0.0,64.82,0,0,0.03,0.1,-0.99,3.71,-3.92,-2.87,-77.8,78.28,-48.16,0.0,False,0.0,0.0,0.0,0.0
7019.0,7019.0,0.0,0.0,0.0,64.82,0,0,0.03,0.1,-0.99,3.71,-3.92,-2.87,-77.8,78.28,-48.16,0.0,False,0.0,0.0,0.0,0.0
7019.0,7019.0,0.0,0.0,0.0,64.82,0,0,0.03,0.1,-0.99,3.71,-3.92,-2.87,-77.8,78.28,-48.16,0.0,False,0.0,0.0,0.0,0.0
7041.0,7041.0,0.0,0.0,0.0,64.77,0,0,0.04,0.09,-0.99,3.64,-3.99,-2.8,-77.27,77.9,-48.25,0.0,False,0.0,0.0,0.0,0.0
7041.0,7041.0,0.0,0.0,0.0,64.77,0,0,0.04,0.09,-0.99,3.64,-3.99,-2.8,-77.27,77.9,-48.25,0.0,False,0.0,0.0,0.0,0.0
7041.0,7041.0,0.0,0.0,0.0,64.77,0,0,0.04,0.09,-0.99,3.64,-3.99,-2.8,-77.27,77.9,-48.25,0.0,False,0.0,0.0,0.0,0.0
7041.0,7041.0,0.0,0.0,0.0,64.77,0,0,0.04,0.09,-0.99,3.64,-3.99,-2.8,-77.27,77.9,-48.25,0.0,False,0.0,0.0,0.0,0.0
7061.0,7061.0,0.0,0.0,0.0,64.77,0,0,0.02,0.09,-0.99,3.78,-4.06,-2.73,-77.27,77.9,-48.25,0.0,False,0.0,0.0,0.0,0.0
7061.0,7061.0,0.0,0.0,0.0,64.77,0,0,0.02,0.09,-0.99,3.78,-4.06,-2.73,-77.27,77.9,-48.25,0.0,False,0.0,0.0,0.0,0.0
7061.0,7061.0,0.0,0.0,0.0,64.77,0,0,0.02,0.09,-0.99,3.78,-4.06,-2.73,-77.27,77.9,-48.25,0.0,False,0.0,0.0,0.0,0.0
7061.0,7061.0,0.0,0.0,0.0,64.77,0,0,0.02,0.09,-0.99,3.78,-4.06,-2.73,-77.27,77.9,-48.25,0.0,False,0.0,0.0,0.0,0.0
7061.0,7061.0,0.0,0.0,0.0,64.77,0,0,0.02,0.09,-0.99,3.78,-4.06,-2.73,-77.27,77.9,-48.25,0.0,False,0.0,0.0,0.0,0.0
7083.0,7083.0,0.0,0.0,0.0,64.77,0,0,0.03,0.09,-0.99,3.71,-4.06,-2.8,-77.27,77.9,-48.25,0.0,False,0.0,0.0,0.0,0.0
7083.0,7083.0,0.0,0.0,0.0,64.77,0,0,0.03,0.09,-0.99,3.71,-4.06,-2.8,-77.27,77.9,-48.25,0.0,False,0.0,0.0,0.0,0.0
7083.0,7083.0,0.0,0.0,0.0,64.77,0,0,0.03,0.09,-0.99,3.71,-4.06,-2.8,-77.27,77.9,-48.25,0.0,False,0.0,0.0,0.0,0.0
7083.0,7083.0,0.0,0.0,0.0,64.77,0,0,0.03,0.09,-0.99,3.71,-4.06,-2.8,-77.27,77.9,-48.25,0.0,False,0.0,0.0,0.0,0.0
7103.0,7103.0,0.0,0.0,0.0,64.77,0,0,0.02,0.09,-0.99,3.71,-3.85,-2.87,-77.27,77.9,-48.25,0.0,False,0.0,0.0,0.0,0.0
7103.0,7103.0,0.0,0.0,0.0,64.77,0,0,0.02,0.09,-0.99,3.71,-3.85,-2.87,-77.27,77.9,-48.25,0.0,False,0.0,0.0,0.0,0.0
7103.0,7103.0,0.0,0.0,0.0,64.77,0,0,0.02,0.09,-0.99,3.71,-3.85,-2.87,-77.27,77.9,-48.25,0.0,False,0.0,0.0,0.0,0.0
7103.0,7103.0,0.0,0.0,0.0,64.77,0,0,0.02,0.09,-0.99,3.71,-3.85,-2.87,-77.27,77.9,-48.25,0.0,False,0.0,0.0,0.0,0.0
7123.0,7123.0,0.0,0.0,0.0,64.77,0,0,0.03,0.09,-1.0,3.78,-4.13,-2.66,-77.36,78.0,-49.04,0.0,False,0.0,0.0,0.0,0.0
7123.0,7123.0,0.0,0.0,0.0,64.77,0,0,0.03,0.09,-1.0,3.78,-4.13,-2.66,-77.36,78.0,-49.04,0.0,False,0.0,0.0,0.0,0.0
7123.0,7123.0,0.0,0.0,0.0,64.77,0,0,0.03,0.09,-1.0,3.78,-4.13,-2.66,-77.36,78.0,-49.04,0.0,False,0.0,0.0,0.0,0.0
7123.0,7123.0,0.0,0.0,0.0,64.77,0,0,0.03,0.09,-1.0,3.78,-4.13,-2.66,-77.36,78.0,-49.04,0.0,False,0.0,0.0,0.0,0.0
7143.0,7143.0,0.0,0.0,0.0,64.76,0,0,0.03,0.09,-0.99,3.71,-4.13,-2.8,-77.36,78.0,-49.04,0.0,False,0.0,0.0,0.0,0.0
7143.0,7143.0,0.0,0.0,0.0,64.76,0,0,0.03,0.09,-0.99,3.71,-4.13,-2.8,-77.36,78.0,-49.04,0.0,False,0.0,0.0,0.0,0.0
7143.0,7143.0,0.0,0.0,0.0,64.76,0,0,0.03,0.09,-0.99,3.71,-4.13,-2.8,-77.36,78.0,-49.04,0.0,False,0.0,0.0,0.0,0.0
7143.0,7143.0,0.0,0.0,0.0,64.76,0,0,0.03,0.09,-0.99,3.71,-4.13,-2.8,-77.36,78.0,-49.04,0.0,False,0.0,0.0,0.0,0.0
7143.0,7143.0,0.0,0.0,0.0,64.76,0,0,0.03,0.09,-0.99,3.71,-4.13,-2.8,-77.36,78.0,-49.04,0.0,False,0.0,0.0,0.0,0.0
7166.0,7166.0,0.0,0.0,0.0,64.76,0,0,0.03,0.1,-1.0,3.85,-4.06,-2.66,-77.36,78.0,-49.04,0.0,False,0.0,0.0,0.0,0.0
7166.0,7166.0,0.0,0.0,0.0,64.76,0,0,0.03,0.1,-1.0,3.85,-4.06,-2.66,-77.36,78.0,-49.04,0.0,False,0.0,0.0,0.0,0.0
7166.0,7166.0,0.0,0.0,0.0,64.76,0,0,0.03,0.1,-1.0,3.85,-4.06,-2.66,-77.36,78.0,-49.04,0.0,False,0.0,0.0,0.0,0.0
7166.0,7166.0,0.0,0.0,0.0,64.76,0,0,0.03,0.1,-1.0,3.85,-4.06,-2.66,-77.36,78.0,-49.04,0.0,False,0.0,0.0,0.0,0.0
7166.0,7166.0,0.0,0.0,0.0,64.76,0,0,0.03,0.1,-1.0,3.85,-4.06,-2.66,-77.36,78.0,-49.04,0.0,False,0.0,0.0,0.0,0.0
7189.0,7189.0,0.0,0.0,0.0,64.76,0,0,0.03,0.09,-0.99,3.92,-4.06,-2.8,-77.36,78.0,-49.04,0.0,False,0.0,0.0,0.0,0.0
7189.0,7189.0,0.0,0.0,0.0,64.76,0,0,0.03,0.09,-0.99,3.92,-4.06,-2.8,-77.36,78.0,-49.04,0.0,False,0.0,0.0,0.0,0.0
7189.0,7189.0,0.0,0.0,0.0,64.76,0,0,0.03,0.09,-0.99,3.92,-4.06,-2.8,-77.36,78.0,-49.04,0.0,False,0.0,0.0,0.0,0.0
7189.0,7189.0,0.0,0.0,0.0,64.76,0,0,0.03,0.09,-0.99,3.92,-4.06,-2.8,-77.36,78.0,-49.04,0.0,False,0.0,0.0,0.0,0.0
7189.0,7189.0,0.0,0.0,0.0,64.76,0,0,0.03,0.09,-0.99,3.92,-4.06,-2.8,-77.36,78.0,-49.04,0.0,False,0.0,0.0,0.0,0.0
7211.0,7211.0,0.0,0.0,0.0,64.76,0,0,0.03,0.09,-0.99,3.85,-3.92,-2.73,-77.36,78.0,-49.04,0.0,False,0.0,0.0,0.0,0.0
7211.0,7211.0,0.0,0.0,0.0,64.76,0,0,0.03,0.09,-0.99,3.85,-3.92,-2.73,-77.36,78.0,-49.04,0.0,False,0.0,0.0,0.0,0.0
7211.0,7211.0,0.0,0.0,0.0,64.76,0,0,0.03,0.09,-0.99,3.85,-3.92,-2.73,-77.36,78.0,-49.04,0.0,False,0.0,0.0,0.0,0.0
7211.0,7211.0,0.0,0.0,0.0,64.76,0,0,0.03,0.09,-0.99,3.85,-3.92,-2.73,-77.36,78.0,-49.04,0.0,False,0.0,0.0,0.0,0.0
7211.0,7211.0,0.0,0.0,0.0,64.76,0,0,0.03,0.09,-0.99,3.85,-3.92,-2.73,-77.36,78.0,-49.04,0.0,False,0.0,0.0,0.0,0.0
7234.0,7234.0,0.0,0.0,0.0,64.82,0,0,0.03,0.09,-1.0,3.71,-3.85,-2.87,-77.42,77.92,-49.01,0.0,False,0.0,0.0,0.0,0.0
7234.0,7234.0,0.0,0.0,0.0,64.82,0,0,0.03,0.09,-1.0,3.71,-3.85,-2.87,-77.42,77.92,-49.01,0.0,False,0.0,0.0,0.0,0.0
7234.0,7234.0,0.0,0.0,0.0,64.82,0,0,0.03,0.09,-1.0,3.71,-3.85,-2.87,-77.42,77.92,-49.01,0.0,False,0.0,0.0,0.0,0.0
7234.0,7234.0,0.0,0.0,0.0,64.82,0,0,0.03,0.09,-1.0,3.71,-3.85,-2.87,-77.42,77.92,-49.01,0.0,False,0.0,0.0,0.0,0.0
7234.0,7234.0,0.0,0.0,0.0,64.82,0,0,0.03,0.09,-1.0,3.71,-3.85,-2.87,-77.42,77.92,-49.01,0.0,False,0.0,0.0,0.0,0.0
7256.0,7256.0,0.0,0.0,0.0,64.82,0,0,0.03,0.1,-0.99,3.92,-4.2,-2.73,-77.42,77.92,-49.01,0.0,False,0.0,0.0,0.0,0.0
7256.0,7256.0,0.0,0.0,0.0,64.82,0,0,0.03,0.1,-0.99,3.92,-4.2,-2.73,-77.42,77.92,-49.01,0.0,False,0.0,0.0,0.0,0.0
7256.0,7256.0,0.0,0.0,0.0,64.82,0,0,0.03,0.1,-0.99,3.92,-4.2,-2.73,-77.42,77.92,-49.01,0.0,False,0.0,0.0,0.0,0.0
7256.0,7256.0,0.0,0.0,0.0,64.82,0,0,0.03,0.1,-0.99,3.92,-4.2,-2.73,-77.42,77.92,-49.01,0.0,False,0.0,0.0,0.0,0.0
7256.0,7256.0,0.0,0.0,0.0,64.82,0,0,0.03,0.1,-0.99,3.92,-4.2,-2.73,-77.42,77.92,-49.01,0.0,False,0.0,0.0,0.0,0.0
7278.0,7278.0,0.0,0.0,0.0,64.82,0,0,0.03,0.09,-0.99,3.78,-4.41,-2.73,-77.42,77.92,-49.01,0.0,False,0.0,0.0,0.0,0.0
7278.0,7278.0,0.0,0.0,0.0,64.82,0,0,0.03,0.09,-0.99,3.78,-4.41,-2.73,-77.42,77.92,-49.01,0.0,False,0.0,0.0,0.0,0.0
7278.0,7278.0,0.0,0.0,0.0,64.82,0,0,0.03,0.09,-0.99,3.78,-4.41,-2.73,-77.42,77.92,-49.01,0.0,False,0.0,0.0,0.0,0.0
7278.0,7278.0,0.0,0.0,0.0,64.82,0,0,0.03,0.09,-0.99,3.78,-4.41,-2.73,-77.42,77.92,-49.01,0.0,False,0.0,0.0,0.0,0.0
7298.0,7298.0,0.0,0.0,0.0,64.82,0,0,0.03,0.09,-0.99,3.85,-3.78,-2.73,-77.42,77.92,-49.01,0.0,False,0.0,0.0,0.0,0.0
7298.0,7298.0,0.0,0.0,0.0,64.82,0,0,0.03,0.09,-0.99,3.85,-3.78,-2.73,-77.42,77.92,-49.01,0.0,False,0.0,0.0,0.0,0.0
7298.0,7298.0,0.0,0.0,0.0,64.82,0,0,0.03,0.09,-0.99,3.85,-3.78,-2.73,-77.42,77.92,-49.01,0.0,False,0.0,0.0,0.0,0.0
7298.0,7298.0,0.0,0.0,0.0,64.82,0,0,0.03,0.09,-0.99,3.85,-3.78,-2.73,-77.42,77.92,-49.01,0.0,False,0.0,0.0,0.0,0.0
7318.0,7318.0,0.0,0.0,0.0,64.82,0,0,0.03,0.09,-0.99,3.78,-3.85,-2.8,-77.45,77.76,-48.47,0.0,False,0.0,0.0,0.0,0.0
7318.0,7318.0,0.0,0.0,0.0,64.82,0,0,0.03,0.09,-0.99,3.78,-3.85,-2.8,-77.45,77.76,-48.47,0.0,False,0.0,0.0,0.0,0.0
7318.0,7318.0,0.0,0.0,0.0,64.82,0,0,0.03,0.09,-0.99,3.78,-3.85,-2.8,-77.45,77.76,-48.47,0.0,False,0.0,0.0,0.0,0.0
7318.0,7318.0,0.0,0.0,0.0,64.82,0,0,0.03,0.09,-0.99,3.78,-3.85,-2.8,-77.45,77.76,-48.47,0.0,False,0.0,0.0,0.0,0.0
7338.0,7338.0,0.0,0.0,0.0,64.89,0,0,0.03,0.09,-1.0,3.64,-3.99,-2.73,-77.45,77.76,-48.47,0.0,False,0.0,0.0,0.0,0.0
7338.0,7338.0,0.0,0.0,0.0,64.89,0,0,0.03,0.09,-1.0,3.64,-3.99,-2.73,-77.45,77.76,-48.47,0.0,False,0.0,0.0,0.0,0.0
7338.0,7338.0,0.0,0.0,0.0,64.89,0,0,0.03,0.09,-1.0,3.64,-3.99,-2.73,-77.45,77.76,-48.47,0.0,False,0.0,0.0,0.0,0.0
7338.0,7338.0,0.0,0.0,0.0,64.89,0,0,0.03,0.09,-1.0,3.64,-3.99,-2.73,-77.45,77.76,-48.47,0.0,False,0.0,0.0,0.0,0.0
7358.0,7358.0,0.0,0.0,0.0,64.89,0,0,0.03,0.1,-1.0,3.64,-3.99,-2.94,-77.45,77.76,-48.47,0.0,False,0.0,0.0,0.0,0.0
7358.0,7358.0,0.0,0.0,0.0,64.89,0,0,0.03,0.1,-1.0,3.64,-3.99,-2.94,-77.45,77.76,-48.47,0.0,False,0.0,0.0,0.0,0.0
7358.0,7358.0,0.0,0.0,0.0,64.89,0,0,0.03,0.1,-1.0,3.64,-3.99,-2.94,-77.45,77.76,-48.47,0.0,False,0.0,0.0,0.0,0.0
7358.0,7358.0,0.0,0.0,0.0,64.89,0,0,0.03,0.1,-1.0,3.64,-3.99,-2.94,-77.45,77.76,-48.47,0.0,False,0.0,0.0,0.0,0.0
7378.0,7378.0,0.0,0.0,0.0,64.89,0,0,0.03,0.09,-0.99,3.85,-4.13,-2.73,-77.45,77.76,-48.47,0.0,False,0.0,0.0,0.0,0.0
7378.0,7378.0,0.0,0.0,0.0,64.89,0,0,0.03,0.09,-0.99,3.85,-4.13,-2.73,-77.45,77.76,-48.47,0.0,False,0.0,0.0,0.0,0.0
7378.0,7378.0,0.0,0.0,0.0,64.89,0,0,0.03,0.09,-0.99,3.85,-4.13,-2.73,-77.45,77.76,-48.47,0.0,False,0.0,0.0,0.0,0.0
7378.0,7378.0,0.0,0.0,0.0,64.89,0,0,0.03,0.09,-0.99,3.85,-4.13,-2.73,-77.45,77.76,-48.47,0.0,False,0.0,0.0,0.0,0.0
7378.0,7378.0,0.0,0.0,0.0,64.89,0,0,0.03,0.09,-0.99,3.85,-4.13,-2.73,-77.45,77.76,-48.47,0.0,False,0.0,0.0,0.0,0.0
7400.0,7400.0,0.0,0.0,0.0,64.89,0,0,0.03,0.09,-1.0,3.85,-4.06,-2.8,-77.45,77.76,-48.47,0.0,False,0.0,0.0,0.0,0.0
7400.0,7400.0,0.0,0.0,0.0,64.89,0,0,0.03,0.09,-1.0,3.85,-4.06,-2.8,-77.45,77.76,-48.47,0.0,False,0.0,0.0,0.0,0.0
7400.0,7400.0,0.0,0.0,0.0,64.89,0,0,0.03,0.09,-1.0,3.85,-4.06,-2.8,-77.45,77.76,-48.47,0.0,False,0.0,0.0,0.0,0.0
7400.0,7400.0,0.0,0.0,0.0,64.89,0,0,0.03,0.09,-1.0,3.85,-4.06,-2.8,-77.45,77.76,-48.47,0.0,False,0.0,0.0,0.0,0.0
7420.0,7420.0,0.0,0.0,0.0,64.89,0,0,0.03,0.09,-0.99,3.64,-4.2,-2.73,-77.71,77.9,-48.68,0.0,False,0.0,0.0,0.0,0.0
7420.0,7420.0,0.0,0.0,0.0,64.89,0,0,0.03,0.09,-0.99,3.64,-4.2,-2.73,-77.71,77.9,-48.68,0.0,False,0.0,0.0,0.0,0.0
7420.0,7420.0,0.0,0.0,0.0,64.89,0,0,0.03,0.09,-0.99,3.64,-4.2,-2.73,-77.71,77.9,-48.68,0.0,False,0.0,0.0,0.0,0.0
7420.0,7420.0,0.0,0.0,0.0,64.89,0,0,0.03,0.09,-0.99,3.64,-4.2,-2.73,-77.71,77.9,-48.68,0.0,False,0.0,0.0,0.0,0.0
7440.0,7440.0,0.0,0.0,0.0,64.93,0,0,0.03,0.09,-0.99,3.85,-4.06,-2.66,-77.71,77.9,-48.68,0.0,False,0.0,0.0,0.0,0.0
7440.0,7440.0,0.0,0.0,0.0,64.93,0,0,0.03,0.09,-0.99,3.85,-4.06,-2.66,-77.71,77.9,-48.68,0.0,False,0.0,0.0,0.0,0.0
7440.0,7440.0,0.0,0.0,0.0,64.93,0,0,0.03,0.09,-0.99,3.85,-4.06,-2.66,-77.71,77.9,-48.68,0.0,False,0.0,0.0,0.0,0.0
7440.0,7440.0,0.0,0.0,0.0,64.93,0,0,0.03,0.09,-0.99,3.85,-4.06,-2.66,-77.71,77.9,-48.68,0.0,False,0.0,0.0,0.0,0.0
7460.0,7460.0,0.0,0.0,0.0,64.93,0,0,0.03,0.09,-0.99,3.71,-4.06,-2.8,-77.71,77.9,-48.68,0.0,False,0.0,0.0,0.0,0.0
7460.0,7460.0,0.0,0.0,0.0,64.93,0,0,0.03,0.09,-0.99,3.71,-4.06,-2.8,-77.71,77.9,-48.68,0.0,False,0.0,0.0,0.0,0.0
7460.0,7460.0,0.0,0.0,0.0,64.93,0,0,0.03,0.09,-0.99,3.71,-4.06,-2.8,-77.71,77.9,-48.68,0.0,False,0.0,0.0,0.0,0.0
7460.0,7460.0,0.0,0.0,0.0,64.93,0,0,0.03,0.09,-0.99,3.71,-4.06,-2.8,-77.71,77.9,-48.68,0.0,False,0.0,0.0,0.0,0.0
7480.0,7480.0,0.0,0.0,0.0,64.93,0,0,0.03,0.09,-0.99,3.85,-3.99,-2.8,-77.71,77.9,-48.68,0.0,False,0.0,0.0,0.0,0.0
7480.0,7480.0,0.0,0.0,0.0,64.93,0,0,0.03,0.09,-0.99,3.85,-3.99,-2.8,-77.71,77.9,-48.68,0.0,False,0.0,0.0,0.0,0.0
7480.0,7480.0,0.0,0.0,0.0,64.93,0,0,0.03,0.09,-0.99,3.85,-3.99,-2.8,-77.71,77.9,-48.68,0.0,False,0.0,0.0,0.0,0.0
7480.0,7480.0,0.0,0.0,0.0,64.93,0,0,0.03,0.09,-0.99,3.85,-3.99,-2.8,-77.71,77.9,-48.68,0.0,False,0.0,0.0,0.0,0.0
7480.0,7480.0,0.0,0.0,0.0,64.93,0,0,0.03,0.09,-0.99,3.85,-3.99,-2.8,-77.71,77.9,-48.68,0.0,False,0.0,0.0,0.0,0.0
7502.0,7502.0,0.0,0.0,0.0,64.93,0,0,0.03,0.09,-0.99,3.85,-4.06,-2.52,-77.71,77.9,-48.68,0.0,False,0.0,0.0,0.0,0.0
7502.0,7502.0,0.0,0.0,0.0,64.93,0,0,0.03,0.09,-0.99,3.85,-4.06,-2.52,-77.71,77.9,-48.68,0.0,False,0.0,0.0,0.0,0.0
7502.0,7502.0,0.0,0.0,0.0,64.93,0,0,0.03,0.09,-0.99,3.85,-4.06,-2.52,-77.71,77.9,-48.68,0.0,False,0.0,0.0,0.0,0.0
7502.0,7502.0,0.0,0.0,0.0,64.93,0,0,0.03,0.09,-0.99,3.85,-4.06,-2.52,-77.71,77.9,-48.68,0.0,False,0.0,0.0,0.0,0.0
7522.0,7522.0,0.0,0.0,0.0,64.82,0,0,0.03,0.09,-0.99,3.71,-3.92,-2.73,-77.96,78.46,-49.02,0.0,False,0.0,0.0,0.0,0.0
7522.0,7522.0,0.0,0.0,0.0,64.82,0,0,0.03,0.09,-0.99,3.71,-3.92,-2.73,-77.96,78.46,-49.02,0.0,False,0.0,0.0,0.0,0.0
7522.0,7522.0,0.0,0.0,0.0,64.82,0,0,0.03,0.09,-0.99,3.71,-3.92,-2.73,-77.96,78.46,-49.02,0.0,False,0.0,0.0,0.0,0.0
7522.0,7522.0,0.0,0.0,0.0,64.82,0,0,0.03,0.09,-0.99,3.71,-3.92,-2.73,-77.96,78.46,-49.02,0.0,False,0.0,0.0,0.0,0.0
7542.0,7542.0,0.0,0.0,0.0,64.82,0,0,0.03,0.09,-0.99,3.71,-4.13,-2.87,-77.96,78.46,-49.02,0.0,False,0.0,0.0,0.0,0.0
7542.0,7542.0,0.0,0.0,0.0,64.82,0,0,0.03,0.09,-0.99,3.71,-4.13,-2.87,-77.96,78.46,-49.02,0.0,False,0.0,0.0,0.0,0.0
7542.0,7542.0,0.0,0.0,0.0,64.82,0,0,0.03,0.09,-0.99,3.71,-4.13,-2.87,-77.96,78.46,-49.02,0.0,False,0.0,0.0,0.0,0.0
7542.0,7542.0,0.0,0.0,0.0,64.82,0,0,0.03,0.09,-0.99,3.71,-4.13,-2.87,-77.96,78.46,-49.02,0.0,False,0.0,0.0,0.0,0.0
7562.0,7562.0,0.0,0.0,0.0,64.82,0,0,0.02,0.09,-1.0,3.92,-4.2,-2.8,-77.96,78.46,-49.02,0.0,False,0.0,0.0,0.0,0.0
7562.0,7562.0,0.0,0.0,0.0,64.82,0,0,0.02,0.09,-1.0,3.92,-4.2,-2.8,-77.96,78.46,-49.02,0.0,False,0.0,0.0,0.0,0.0
7562.0,7562.0,0.0,0.0,0.0,64.82,0,0,0.02,0.09,-1.0,3.92,-4.2,-2.8,-77.96,78.46,-49.02,0.0,False,0.0,0.0,0.0,0.0
7562.0,7562.0,0.0,0.0,0.0,64.82,0,0,0.02,0.09,-1.0,3.92,-4.2,-2.8,-77.96,78.46,-49.02,0.0,False,0.0,0.0,0.0,0.0
7562.0,7562.0,0.0,0.0,0.0,64.82,0,0,0.02,0.09,-1.0,3.92,-4.2,-2.8,-77.96,78.46,-49.02,0.0,False,0.0,0.0,0.0,0.0
7585.0,7585.0,0.0,0.0,0.0,64.82,0,0,0.03,0.09,-0.99,3.85,-3.85,-2.8,-77.96,78.46,-49.02,0.0,False,0.0,0.0,0.0,0.0
7585.0,7585.0,0.0,0.0,0.0,64.82,0,0,0.03,0.09,-0.99,3.85,-3.85,-2.8,-77.96,78.46,-49.02,0.0,False,0.0,0.0,0.0,0.0
7585.0,7585.0,0.0,0.0,0.0,64.82,0,0,0.03,0.09,-0.99,3.85,-3.85,-2.8,-77.96,78.46,-49.02,0.0,False,0.0,0.0,0.0,0.0
7585.0,7585.0,0.0,0.0,0.0,64.82,0,0,0.03,0.09,-0.99,3.85,-3.85,-2.8,-77.96,78.46,-49.02,0.0,False,0.0,0.0,0.0,0.0
7585.0,7585.0,0.0,0.0,0.0,64.82,0,0,0.03,0.09,-0.99,3.85,-3.85,-2.8,-77.96,78.46,-49.02,0.0,False,0.0,0.0,0.0,0.0
7607.0,7607.0,0.0,0.0,0.0,64.82,0,0,0.03,0.09,-0.99,3.92,-4.2,-2.66,-77.96,78.46,-49.02,0.0,False,0.0,0.0,0.0,0.0
7607.0,7607.0,0.0,0.0,0.0,64.82,0,0,0.03,0.09,-0.99,3.92,-4.2,-2.66,-77.96,78.46,-49.02,0.0,False,0.0,0.0,0.0,0.0
7607.0,7607.0,0.0,0.0,0.0,64.82,0,0,0.03,0.09,-0.99,3.92,-4.2,-2.66,-77.96,78.46,-49.02,0.0,False,0.0,0.0,0.0,0.0
7607.0,7607.0,0.0,0.0,0.0,64.82,0,0,0.03,0.09,-0.99,3.92,-4.2,-2.66,-77.96,78.46,-49.02,0.0,False,0.0,0.0,0.0,0.0
7607.0,7607.0,0.0,0.0,0.0,64.82,0,0,0.03,0.09,-0.99,3.92,-4.2,-2.66,-77.96,78.46,-49.02,0.0,False,0.0,0.0,0.0,0.0
7629.0,7629.0,0.0,0.0,0.0,64.66,0,0,0.02,0.09,-0.99,3.85,-4.06,-2.87,-77.35,78.28,-48.16,0.0,False,0.0,0.0,0.0,0.0
7629.0,7629.0,0.0,0.0,0.0,64.66,0,0,0.02,0.09,-0.99,3.85,-4.06,-2.87,-77.35,78.28,-48.16,0.0,False,0.0,0.0,0.0,0.0
7629.0,7629.0,0.0,0.0,0.0,64.66,0,0,0.02,0.09,-0.99,3.85,-4.06,-2.87,-77.35,78.28,-48.16,0.0,False,0.0,0.0,0.0,0.0
7629.0,7629.0,0.0,0.0,0.0,64.66,0,0,0.02,0.09,-0.99,3.85,-4.06,-2.87,-77.35,78.28,-48.16,0.0,False,0.0,0.0,0.0,0.0
7649.0,7649.0,0.0,0.0,0.0,64.66,0,0,0.03,0.09,-0.99,3.85,-3.85,-2.59,-77.35,78.28,-48.16,0.0,False,0.0,0.0,0.0,0.0
7649.0,7649.0,0.0,0.0,0.0,64.66,0,0,0.03,0.09,-0.99,3.85,-3.85,-2.59,-77.35,78.28,-48.16,0.0,False,0.0,0.0,0.0,0.0
7649.0,7649.0,0.0,0.0,0.0,64.66,0,0,0.03,0.09,-0.99,3.85,-3.85,-2.59,-77.35,78.28,-48.16,0.0,False,0.0,0.0,0.0,0.0
7649.0,7649.0,0.0,0.0,0.0,64.66,0,0,0.03,0.09,-0.99,3.85,-3.85,-2.59,-77.35,78.28,-48.16,0.0,False,0.0,0.0,0.0,0.0
7669.0,7669.0,0.0,0.0,0.0,64.66,0,0,0.03,0.09,-0.99,3.78,-3.92,-2.94,-77.35,78.28,-48.16,0.0,False,0.0,0.0,0.0,0.0
7669.0,7669.0,0.0,0.0,0.0,64.66,0,0,0.03,0.09,-0.99,3.78,-3.92,-2.94,-77.35,78.28,-48.16,0.0,False,0.0,0.0,0.0,0.0
7669.0,7669.0,0.0,0.0,0.0,64.66,0,0,0.03,0.09,-0.99,3.78,-3.92,-2.94,-77.35,78.28,-48.16,0.0,False,0.0,0.0,0.0,0.0
7669.0,7669.0,0.0,0.0,0.0,64.66,0,0,0.03,0.09,-0.99,3.78,-3.92,-2.94,-77.35,78.28,-48.16,0.0,False,0.0,0.0,0.0,0.0
7689.0,7689.0,0.0,0.0,0.0,64.66,0,0,0.03,0.09,-0.99,3.92,-4.06,-2.73,-77.35,78.28,-48.16,0.0,False,0.0,0.0,0.0,0.0
7689.0,7689.0,0.0,0.0,0.0,64.66,0,0,0.03,0.09,-0.99,3.92,-4.06,-2.73,-77.35,78.28,-48.16,0.0,False,0.0,0.0,0.0,0.0
7689.0,7689.0,0.0,0.0,0.0,64.66,0,0,0.03,0.09,-0.99,3.92,-4.06,-2.73,-77.35,78.28,-48.16,0.0,False,0.0,0.0,0.0,0.0
7689.0,7689.0,0.0,0.0,0.0,64.66,0,0,0.03,0.09,-0.99,3.92,-4.06,-2.73,-77.35,78.28,-48.16,0.0,False,0.0,0.0,0.0,0.0
7709.0,7709.0,0.0,0.0,0.0,64.66,0,0,0.03,0.1,-0.99,3.92,-3.99,-2.59,-77.35,78.28,-48.16,0.0,False,0.0,0.0,0.0,0.0
7709.0,7709.0,0.0,0.0,0.0,64.66,0,0,0.03,0.1,-0.99,3.92,-3.99,-2.59,-77.35,78.28,-48.16,0.0,False,0.0,0.0,0.0,0.0
7709.0,7709.0,0.0,0.0,0.0,64.66,0,0,0.03,0.1,-0.99,3.92,-3.99,-2.59,-77.35,78.28,-48.16,0.0,False,0.0,0.0,0.0,0.0
7709.0,7709.0,0.0,0.0,0.0,64.66,0,0,0.03,0.1,-0.99,3.92,-3.99,-2.59,-77.35,78.28,-48.16,0.0,False,0.0,0.0,0.0,0.0
7709.0,7709.0,0.0,0.0,0.0,64.66,0,0,0.03,0.1,-0.99,3.92,-3.99,-2.59,-77.35,78.28,-48.16,0.0,False,0.0,0.0,0.0,0.0
7731.0,7731.0,0.0,0.0,0.0,64.76,0,0,0.03,0.09,-0.99,3.85,-4.06,-2.66,-77.68,78.33,-48.13,0.0,False,0.0,0.0,0.0,0.0
7731.0,7731.0,0.0,0.0,0.0,64.76,0,0,0.03,0.09,-0.99,3.85,-4.06,-2.66,-77.68,78.33,-48.13,0.0,False,0.0,0.0,0.0,0.0
7731.0,7731.0,0.0,0.0,0.0,64.76,0,0,0.03,0.09,-0.99,3.85,-4.06,-2.66,-77.68,78.33,-48.13,0.0,False,0.0,0.0,0.0,0.0
7731.0,7731.0,0.0,0.0,0.0,64.76,0,0,0.03,0.09,-0.99,3.85,-4.06,-2.66,-77.68,78.33,-48.13,0.0,False,0.0,0.0,0.0,0.0
7751.0,7751.0,0.0,0.0,0.0,64.76,0,0,0.03,0.09,-0.99,3.92,-3.92,-2.87,-77.68,78.33,-48.13,0.0,False,0.0,0.0,0.0,0.0
7751.0,7751.0,0.0,0.0,0.0,64.76,0,0,0.03,0.09,-0.99,3.92,-3.92,-2.87,-77.68,78.33,-48.13,0.0,False,0.0,0.0,0.0,0.0
7751.0,7751.0,0.0,0.0,0.0,64.76,0,0,0.03,0.09,-0.99,3.92,-3.92,-2.87,-77.68,78.33,-48.13,0.0,False,0.0,0.0,0.0,0.0
7751.0,7751.0,0.0,0.0,0.0,64.76,0,0,0.03,0.09,-0.99,3.92,-3.92,-2.87,-77.68,78.33,-48.13,0.0,False,0.0,0.0,0.0,0.0
7771.0,7771.0,0.0,0.0,0.0,64.76,0,0,0.03,0.09,-0.99,3.71,-3.99,-2.73,-77.68,78.33,-48.13,0.0,False,0.0,0.0,0.0,0.0
7771.0,7771.0,0.0,0.0,0.0,64.76,0,0,0.03,0.09,-0.99,3.71,-3.99,-2.73,-77.68,78.33,-48.13,0.0,False,0.0,0.0,0.0,0.0
7771.0,7771.0,0.0,0.0,0.0,64.76,0,0,0.03,0.09,-0.99,3.71,-3.99,-2.73,-77.68,78.33,-48.13,0.0,False,0.0,0.0,0.0,0.0
7771.0,7771.0,0.0,0.0,0.0,64.76,0,0,0.03,0.09,-0.99,3.71,-3.99,-2.73,-77.68,78.33,-48.13,0.0,False,0.0,0.0,0.0,0.0
7791.0,7791.0,0.0,0.0,0.0,64.76,0,0,0.03,0.09,-0.99,3.92,-3.92,-2.73,-77.68,78.33,-48.13,0.0,False,0.0,0.0,0.0,0.0
7791.0,7791.0,0.0,0.0,0.0,64.76,0,0,0.03,0.09,-0.99,3.92,-3.92,-2.73,-77.68,78.33,-48.13,0.0,False,0.0,0.0,0.0,0.0
7791.0,7791.0,0.0,0.0,0.0,64.76,0,0,0.03,0.09,-0.99,3.92,-3.92,-2.73,-77.68,78.33,-48.13,0.0,False,0.0,0.0,0.0,0.0
7791.0,7791.0,0.0,0.0,0.0,64.76,0,0,0.03,0.09,-0.99,3.92,-3.92,-2.73,-77.68,78.33,-48.13,0.0,False,0.0,0.0,0.0,0.0
7791.0,7791.0,0.0,0.0,0.0,64.76,0,0,0.03,0.09,-0.99,3.92,-3.92,-2.73,-77.68,78.33,-48.13,0.0,False,0.0,0.0,0.0,0.0
7814.0,7814.0,0.0,0.0,0.0,64.76,0,0,0.03,0.09,-0.99,3.78,-3.99,-2.8,-77.76,78.22,-48.33,0.0,False,0.0,0.0,0.0,0.0
7814.0,7814.0,0.0,0.0,0.0,64.76,0,0,0.03,0.09,-0.99,3.78,-3.99,-2.8,-77.76,78.22,-48.33,0.0,False,0.0,0.0,0.0,0.0
7814.0,7814.0,0.0,0.0,0.0,64.76,0,0,0.03,0.09,-0.99,3.78,-3.99,-2.8,-77.76,78.22,-48.33,0.0,False,0.0,0.0,0.0,0.0
7814.0,7814.0,0.0,0.0,0.0,64.76,0,0,0.03,0.09,-0.99,3.78,-3.99,-2.8,-77.76,78.22,-48.33,0.0,False,0.0,0.0,0.0,0.0
7814.0,7814.0,0.0,0.0,0.0,64.76,0,0,0.03,0.09,-0.99,3.78,-3.99,-2.8,-77.76,78.22,-48.33,0.0,False,0.0,0.0,0.0,0.0
7837.0,7837.0,0.0,0.0,0.0,64.83,0,0,0.03,0.1,-0.99,3.78,-4.06,-2.52,-77.76,78.22,-48.33,0.0,False,0.0,0.0,0.0,0.0
7837.0,7837.0,0.0,0.0,0.0,64.83,0,0,0.03,0.1,-0.99,3.78,-4.06,-2.52,-77.76,78.22,-48.33,0.0,False,0.0,0.0,0.0,0.0
7837.0,7837.0,0.0,0.0,0.0,64.83,0,0,0.03,0.1,-0.99,3.78,-4.06,-2.52,-77.76,78.22,-48.33,0.0,False,0.0,0.0,0.0,0.0
7837.0,7837.0,0.0,0.0,0.0,64.83,0,0,0.03,0.1,-0.99,3.78,-4.06,-2.52,-77.76,78.22,-48.33,0.0,False,0.0,0.0,0.0,0.0
7837.0,7837.0,0.0,0.0,0.0,64.83,0,0,0.03,0.1,-0.99,3.78,-4.06,-2.52,-77.76,78.22,-48.33,0.0,False,0.0,0.0,0.0,0.0
7860.0,7860.0,0.0,0.0,0.0,64.83,0,0,0.03,0.09,-0.99,3.85,-4.06,-2.94,-77.76,78.22,-48.33,0.0,False,0.0,0.0,0.0,0.0
7860.0,7860.0,0.0,0.0,0.0,64.83,0,0,0.03,0.09,-0.99,3.85,-4.06,-2.94,-77.76,78.22,-48.33,0.0,False,0.0,0.0,0.0,0.0
7860.0,7860.0,0.0,0.0,0.0,64.83,0,0,0.03,0.09,-0.99,3.85,-4.06,-2.94,-77.76,78.22,-48.33,0.0,False,0.0,0.0,0.0,0.0
7860.0,7860.0,0.0,0.0,0.0,64.83,0,0,0.03,0.09,-0.99,3.85,-4.06,-2.94,-77.76,78.22,-48.33,0.0,False,0.0,0.0,0.0,0.0
7860.0,7860.0,0.0,0.0,0.0,64.83,0,0,0.03,0.09,-0.99,3.85,-4.06,-2.94,-77.76,78.22,-48.33,0.0,False,0.0,0.0,0.0,0.0
7883.0,7883.0,0.0,0.0,0.0,64.83,0,0,0.03,0.09,-1.0,3.99,-4.13,-2.87,-77.76,78.22,-48.33,0.0,False,0.0,0.0,0.0,0.0
7883.0,7883.0,0.0,0.0,0.0,64.83,0,0,0.03,0.09,-1.0,3.99,-4.13,-2.87,-77.76,78.22,-48.33,0.0,False,0.0,0.0,0.0,0.0
7883.0,7883.0,0.0,0.0,0.0,64.83,0,0,0.03,0.09,-1.0,3.99,-4.13,-2.87,-77.76,78.22,-48.33,0.0,False,0.0,0.0,0.0,0.0
7883.0,7883.0,0.0,0.0,0.0,64.83,0,0,0.03,0.09,-1.0,3.99,-4.13,-2.87,-77.76,78.22,-48.33,0.0,False,0.0,0.0,0.0,0.0
7903.0,7903.0,0.0,0.0,0.0,64.83,0,0,0.03,0.09,-0.99,3.78,-4.06,-2.66,-77.76,78.22,-48.33,0.0,False,0.0,0.0,0.0,0.0
7903.0,7903.0,0.0,0.0,0.0,64.83,0,0,0.03,0.09,-0.99,3.78,-4.06,-2.66,-77.76,78.22,-48.33,0.0,False,0.0,0.0,0.0,0.0
7903.0,7903.0,0.0,0.0,0.0,64.83,0,0,0.03,0.09,-0.99,3.78,-4.06,-2.66,-77.76,78.22,-48.33,0.0,False,0.0,0.0,0.0,0.0
7903.0,7903.0,0.0,0.0,0.0,64.83,0,0,0.03,0.09,-0.99,3.78,-4.06,-2.66,-77.76,78.22,-48.33,0.0,False,0.0,0.0,0.0,0.0
7903.0,7903.0,0.0,0.0,0.0,64.83,0,0,0.03,0.09,-0.99,3.78,-4.06,-2.66,-77.76,78.22,-48.33,0.0,False,0.0,0.0,0.0,0.0
7925.0,7925.0,0.0,0.0,0.0,64.84,0,0,0.03,0.1,-1.0,3.85,-4.06,-2.94,-77.68,78.12,-48.19,0.0,False,0.0,0.0,0.0,0.0
7925.0,7925.0,0.0,0.0,0.0,64.84,0,0,0.03,0.1,-1.0,3.85,-4.06,-2.94,-77.68,78.12,-48.19,0.0,False,0.0,0.0,0.0,0.0
7925.0,7925.0,0.0,0.0,0.0,64.84,0,0,0.03,0.1,-1.0,3.85,-4.06,-2.94,-77.68,78.12,-48.19,0.0,False,0.0,0.0,0.0,0.0
7925.0,7925.0,0.0,0.0,0.0,64.84,0,0,0.03,0.1,-1.0,3.85,-4.06,-2.94,-77.68,78.12,-48.19,0.0,False,0.0,0.0,0.0,0.0
7945.0,7945.0,0.0,0.0,0.0,64.84,0,0,0.03,0.09,-0.99,3.85,-3.99,-2.73,-77.68,78.12,-48.19,0.0,False,0.0,0.0,0.0,0.0
7945.0,7945.0,0.0,0.0,0.0,64.84,0,0,0.03,0.09,-0.99,3.85,-3.99,-2.73,-77.68,78.12,-48.19,0.0,False,0.0,0.0,0.0,0.0
7945.0,7945.0,0.0,0.0,0.0,64.84,0,0,0.03,0.09,-0.99,3.85,-3.99,-2.73,-77.68,78.12,-48.19,0.0,False,0.0,0.0,0.0,0.0
7945.0,7945.0,0.0,0.0,0.0,64.84,0,0,0.03,0.09,-0.99,3.85,-3.99,-2.73,-77.68,78.12,-48.19,0.0,False,0.0,0.0,0.0,0.0
7965.0,7965.0,0.0,0.0,0.0,64.84,0,0,0.03,0.09,-0.99,3.85,-4.13,-2.8,-77.68,78.12,-48.19,0.0,False,0.0,0.0,0.0,0.0
7965.0,7965.0,0.0,0.0,0.0,64.84,0,0,0.03,0.09,-0.99,3.85,-4.13,-2.8,-77.68,78.12,-48.19,0.0,False,0.0,0.0,0.0,0.0
7965.0,7965.0,0.0,0.0,0.0,64.84,0,0,0.03,0.09,-0.99,3.85,-4.13,-2.8,-77.68,78.12,-48.19,0.0,False,0.0,0.0,0.0,0.0
7965.0,7965.0,0.0,0.0,0.0,64.84,0,0,0.03,0.09,-0.99,3.85,-4.13,-2.8,-77.68,78.12,-48.19,0.0,False,0.0,0.0,0.0,0.0
7985.0,7985.0,0.0,0.0,0.0,64.84,0,0,0.03,0.09,-0.99,3.78,-4.06,-2.73,-77.68,78.12,-48.19,0.0,False,0.0,0.0,0.0,0.0
7985.0,7985.0,0.0,0.0,0.0,64.84,0,0,0.03,0.09,-0.99,3.78,-4.06,-2.73,-77.68,78.12,-48.19,0.0,False,0.0,0.0,0.0,0.0
7985.0,7985.0,0.0,0.0,0.0,64.84,0,0,0.03,0.09,-0.99,3.78,-4.06,-2.73,-77.68,78.12,-48.19,0.0,False,0.0,0.0,0.0,0.0
7985.0,7985.0,0.0,0.0,0.0,64.84,0,0,0.03,0.09,-0.99,3.78,-4.06,-2.73,-77.68,78.12,-48.19,0.0,False,0.0,0.0,0.0,0.0
8005.0,8005.0,0.0,0.0,0.0,64.84,0,0,0.03,0.09,-0.99,3.78,-4.06,-2.73,-77.68,78.12,-48.19,0.0,False,0.0,0.0,0.0,0.0
8005.0,8005.0,0.0,0.0,0.0,64.84,0,0,0.03,0.09,-0.99,3.78,-4.06,-2.73,-77.68,78.12,-48.19,0.0,False,0.0,0.0,0.0,0.0
8005.0,8005.0,0.0,0.0,0.0,64.84,0,0,0.03,0.09,-0.99,3.78,-4.06,-2.73,-77.68,78.12,-48.19,0.0,False,0.0,0.0,0.0,0.0
8005.0,8005.0,0.0,0.0,0.0,64.84,0,0,0.03,0.09,-0.99,3.78,-4.06,-2.73,-77.68,78.12,-48.19,0.0,False,0.0,0.0,0.0,0.0
8005.0,8005.0,0.0,0.0,0.0,64.84,0,0,0.03,0.09,-0.99,3.78,-4.06,-2.73,-77.68,78.12,-48.19,0.0,False,0.0,0.0,0.0,0.0
8027.0,8027.0,0.0,0.0,0.0,64.94,0,0,0.03,0.09,-0.99,3.57,-3.92,-2.8,-77.46,77.62,-48.16,0.0,False,0.0,0.0,0.0,0.0
8027.0,8027.0,0.0,0.0,0.0,64.94,0,0,0.03,0.09,-0.99,3.57,-3.92,-2.8,-77.46,77.62,-48.16,0.0,False,0.0,0.0,0.0,0.0
8027.0,8027.0,0.0,0.0,0.0,64.94,0,0,0.03,0.09,-0.99,3.57,-3.92,-2.8,-77.46,77.62,-48.16,0.0,False,0.0,0.0,0.0,0.0
8027.0,8027.0,0.0,0.0,0.0,64.94,0,0,0.03,0.09,-0.99,3.57,-3.92,-2.8,-77.46,77.62,-48.16,0.0,False,0.0,0.0,0.0,0.0
8027.0,8027.0,0.0,0.0,0.0,64.94,0,0,0.03,0.09,-0.99,3.57,-3.92,-2.8,-77.46,77.62,-48.16,0.0,False,0.0,0.0,0.0,0.0
8049.0,8049.0,0.0,0.0,0.0,64.94,0,0,0.03,0.1,-1.0,3.78,-3.85,-2.73,-77.46,77.62,-48.16,0.0,False,0.0,0.0,0.0,0.0
8049.0,8049.0,0.0,0.0,0.0,64.94,0,0,0.03,0.1,-1.0,3.78,-3.85,-2.73,-77.46,77.62,-48.16,0.0,False,0.0,0.0,0.0,0.0
8049.0,8049.0,0.0,0.0,0.0,64.94,0,0,0.03,0.1,-1.0,3.78,-3.85,-2.73,-77.46,77.62,-48.16,0.0,False,0.0,0.0,0.0,0.0
8049.0,8049.0,0.0,0.0,0.0,64.94,0,0,0.03,0.1,-1.0,3.78,-3.85,-2.73,-77.46,77.62,-48.16,0.0,False,0.0,0.0,0.0,0.0
8069.0,8069.0,0.0,0.0,0.0,64.94,0,0,0.03,0.09,-0.99,3.85,-4.27,-2.87,-77.46,77.62,-48.16,0.0,False,0.0,0.0,0.0,0.0
8069.0,8069.0,0.0,0.0,0.0,64.94,0,0,0.03,0.09,-0.99,3.85,-4.27,-2.87,-77.46,77.62,-48.16,0.0,False,0.0,0.0,0.0,0.0
8069.0,8069.0,0.0,0.0,0.0,64.94,0,0,0.03,0.09,-0.99,3.85,-4.27,-2.87,-77.46,77.62,-48.16,0.0,False,0.0,0.0,0.0,0.0
8069.0,8069.0,0.0,0.0,0.0,64.94,0,0,0.03,0.09,-0.99,3.85,-4.27,-2.87,-77.46,77.62,-48.16,0.0,False,0.0,0.0,0.0,0.0
8089.0,8089.0,0.0,0.0,0.0,64.94,0,0,0.03,0.09,-1.0,3.78,-4.27,-2.73,-77.46,77.62,-48.16,0.0,False,0.0,0.0,0.0,0.0
8089.0,8089.0,0.0,0.0,0.0,64.94,0,0,0.03,0.09,-1.0,3.78,-4.27,-2.73,-77.46,77.62,-48.16,0.0,False,0.0,0.0,0.0,0.0
8089.0,8089.0,0.0,0.0,0.0,64.94,0,0,0.03,0.09,-1.0,3.78,-4.27,-2.73,-77.46,77.62,-48.16,0.0,False,0.0,0.0,0.0,0.0
8089.0,8089.0,0.0,0.0,0.0,64.94,0,0,0.03,0.09,-1.0,3.78,-4.27,-2.73,-77.46,77.62,-48.16,0.0,False,0.0,0.0,0.0,0.0
8089.0,8089.0,0.0,0.0,0.0,64.94,0,0,0.03,0.09,-1.0,3.78,-4.27,-2.73,-77.46,77.62,-48.16,0.0,False,0.0,0.0,0.0,0.0
8112.0,8112.0,0.0,0.0,0.0,64.94,0,0,0.03,0.09,-0.99,3.85,-4.06,-2.8,-77.26,77.71,-48.76,0.0,False,0.0,0.0,0.0,0.0
8112.0,8112.0,0.0,0.0,0.0,64.94,0,0,0.03,0.09,-0.99,3.85,-4.06,-2.8,-77.26,77.71,-48.76,0.0,False,0.0,0.0,0.0,0.0
8112.0,8112.0,0.0,0.0,0.0,64.94,0,0,0.03,0.09,-0.99,3.85,-4.06,-2.8,-77.26,77.71,-48.76,0.0,False,0.0,0.0,0.0,0.0
8112.0,8112.0,0.0,0.0,0.0,64.94,0,0,0.03,0.09,-0.99,3.85,-4.06,-2.8,-77.26,77.71,-48.76,0.0,False,0.0,0.0,0.0,0.0
8112.0,8112.0,0.0,0.0,0.0,64.94,0,0,0.03,0.09,-0.99,3.85,-4.06,-2.8,-77.26,77.71,-48.76,0.0,False,0.0,0.0,0.0,0.0
8134.0,8134.0,0.0,0.0,0.0,64.83,0,0,0.04,0.09,-1.0,3.78,-4.2,-2.66,-77.26,77.71,-48.76,0.0,False,0.0,0.0,0.0,0.0
8134.0,8134.0,0.0,0.0,0.0,64.83,0,0,0.04,0.09,-1.0,3.78,-4.2,-2.66,-77.26,77.71,-48.76,0.0,False,0.0,0.0,0.0,0.0
8134.0,8134.0,0.0,0.0,0.0,64.83,0,0,0.04,0.09,-1.0,3.78,-4.2,-2.66,-77.26,77.71,-48.76,0.0,False,0.0,0.0,0.0,0.0
8134.0,8134.0,0.0,0.0,0.0,64.83,0,0,0.04,0.09,-1.0,3.78,-4.2,-2.66,-77.26,77.71,-48.76,0.0,False,0.0,0.0,0.0,0.0
8134.0,8134.0,0.0,0.0,0.0,64.83,0,0,0.04,0.09,-1.0,3.78,-4.2,-2.66,-77.26,77.71,-48.76,0.0,False,0.0,0.0,0.0,0.0
8156.0,8156.0,0.0,0.0,0.0,64.83,0,0,0.03,0.09,-1.0,3.71,-3.99,-2.8,-77.26,77.71,-48.76,0.0,False,0.0,0.0,0.0,0.0
8156.0,8156.0,0.0,0.0,0.0,64.83,0,0,0.03,0.09,-1.0,3.71,-3.99,-2.8,-77.26,77.71,-48.76,0.0,False,0.0,0.0,0.0,0.0
8156.0,8156.0,0.0,0.0,0.0,64.83,0,0,0.03,0.09,-1.0,3.71,-3.99,-2.8,-77.26,77.71,-48.76,0.0,False,0.0,0.0,0.0,0.0
8156.0,8156.0,0.0,0.0,0.0,64.83,0,0,0.03,0.09,-1.0,3.71,-3.99,-2.8,-77.26,77.71,-48.76,0.0,False,0.0,0.0,0.0,0.0
8176.0,8176.0,0.0,0.0,0.0,64.83,0,0,0.03,0.09,-1.0,3.78,-3.85,-2.94,-77.26,77.71,-48.76,0.0,False,0.0,0.0,0.0,0.0
8176.0,8176.0,0.0,0.0,0.0,64.83,0,0,0.03,0.09,-1.0,3.78,-3.85,-2.94,-77.26,77.71,-48.76,0.0,False,0.0,0.0,0.0,0.0
8176.0,8176.0,0.0,0.0,0.0,64.83,0,0,0.03,0.09,-1.0,3.78,-3.85,-2.94,-77.26,77.71,-48.76,0.0,False,0.0,0.0,0.0,0.0
8176.0,8176.0,0.0,0.0,0.0,64.83,0,0,0.03,0.09,-1.0,3.78,-3.85,-2.94,-77.26,77.71,-48.76,0.0,False,0.0,0.0,0.0,0.0
8196.0,8196.0,0.0,0.0,0.0,64.83,0,0,0.03,0.09,-1.0,3.78,-4.2,-2.66,-77.26,77.71,-48.76,0.0,False,0.0,0.0,0.0,0.0
8196.0,8196.0,0.0,0.0,0.0,64.83,0,0,0.03,0.09,-1.0,3.78,-4.2,-2.66,-77.26,77.71,-48.76,0.0,False,0.0,0.0,0.0,0.0
8196.0,8196.0,0.0,0.0,0.0,64.83,0,0,0.03,0.09,-1.0,3.78,-4.2,-2.66,-77.26,77.71,-48.76,0.0,False,0.0,0.0,0.0,0.0
8196.0,8196.0,0.0,0.0,0.0,64.83,0,0,0.03,0.09,-1.0,3.78,-4.2,-2.66,-77.26,77.71,-48.76,0.0,False,0.0,0.0,0.0,0.0
8216.0,8216.0,0.0,0.0,0.0,64.97,0,0,0.03,0.1,-0.99,4.06,-4.06,-2.66,-77.42,77.51,-48.03,0.0,False,0.0,0.0,0.0,0.0
8216.0,8216.0,0.0,0.0,0.0,64.97,0,0,0.03,0.1,-0.99,4.06,-4.06,-2.66,-77.42,77.51,-48.03,0.0,False,0.0,0.0,0.0,0.0
8216.0,8216.0,0.0,0.0,0.0,64.97,0,0,0.03,0.1,-0.99,4.06,-4.06,-2.66,-77.42,77.51,-48.03,0.0,False,0.0,0.0,0.0,0.0
8216.0,8216.0,0.0,0.0,0.0,64.97,0,0,0.03,0.1,-0.99,4.06,-4.06,-2.66,-77.42,77.51,-48.03,0.0,False,0.0,0.0,0.0,0.0
8216.0,8216.0,0.0,0.0,0.0,64.97,0,0,0.03,0.1,-0.99,4.06,-4.06,-2.66,-77.42,77.51,-48.03,0.0,False,0.0,0.0,0.0,0.0
8238.0,8238.0,0.0,0.0,0.0,64.97,0,0,0.03,0.09,-0.99,3.78,-3.99,-2.87,-77.42,77.51,-48.03,0.0,False,0.0,0.0,0.0,0.0
8238.0,8238.0,0.0,0.0,0.0,64.97,0,0,0.03,0.09,-0.99,3.78,-3.99,-2.87,-77.42,77.51,-48.03,0.0,False,0.0,0.0,0.0,0.0
8238.0,8238.0,0.0,0.0,0.0,64.97,0,0,0.03,0.09,-0.99,3.78,-3.99,-2.87,-77.42,77.51,-48.03,0.0,False,0.0,0.0,0.0,0.0
8238.0,8238.0,0.0,0.0,0.0,64.97,0,0,0.03,0.09,-0.99,3.78,-3.99,-2.87,-77.42,77.51,-48.03,0.0,False,0.0,0.0,0.0,0.0
8258.0,8258.0,0.0,0.0,0.0,64.97,0,0,0.03,0.09,-0.99,4.06,-4.13,-2.8,-77.42,77.51,-48.03,0.0,False,0.0,0.0,0.0,0.0
8258.0,8258.0,0.0,0.0,0.0,64.97,0,0,0.03,0.09,-0.99,4.06,-4.13,-2.8,-77.42,77.51,-48.03,0.0,False,0.0,0.0,0.0,0.0
8258.0,8258.0,0.0,0.0,0.0,64.97,0,0,0.03,0.09,-0.99,4.06,-4.13,-2.8,-77.42,77.51,-48.03,0.0,False,0.0,0.0,0.0,0.0
8258.0,8258.0,0.0,0.0,0.0,64.97,0,0,0.03,0.09,-0.99,4.06,-4.13,-2.8,-77.42,77.51,-48.03,0.0,False,0.0,0.0,0.0,0.0
8278.0,8278.0,0.0,0.0,0.0,64.97,0,0,0.03,0.09,-0.99,3.71,-3.99,-2.87,-77.42,77.51,-48.03,0.0,False,0.0,0.0,0.0,0.0
8278.0,8278.0,0.0,0.0,0.0,64.97,0,0,0.03,0.09,-0.99,3.71,-3.99,-2.87,-77.42,77.51,-48.03,0.0,False,0.0,0.0,0.0,0.0
8278.0,8278.0,0.0,0.0,0.0,64.97,0,0,0.03,0.09,-0.99,3.71,-3.99,-2.87,-77.42,77.51,-48.03,0.0,False,0.0,0.0,0.0,0.0
8278.0,8278.0,0.0,0.0,0.0,64.97,0,0,0.03,0.09,-0.99,3.71,-3.99,-2.87,-77.42,77.51,-48.03,0.0,False,0.0,0.0,0.0,0.0
8298.0,8298.0,0.0,0.0,0.0,64.97,0,0,0.03,0.09,-0.99,3.92,-4.2,-2.8,-77.42,77.51,-48.03,0.0,False,0.0,0.0,0.0,0.0
8298.0,8298.0,0.0,0.0,0.0,64.97,0,0,0.03,0.09,-0.99,3.92,-4.2,-2.8,-77.42,77.51,-48.03,0.0,False,0.0,0.0,0.0,0.0
8298.0,8298.0,0.0,0.0,0.0,64.97,0,0,0.03,0.09,-0.99,3.92,-4.2,-2.8,-77.42,77.51,-48.03,0.0,False,0.0,0.0,0.0,0.0
8298.0,8298.0,0.0,0.0,0.0,64.97,0,0,0.03,0.09,-0.99,3.92,-4.2,-2.8,-77.42,77.51,-48.03,0.0,False,0.0,0.0,0.0,0.0
8318.0,8318.0,0.0,0.0,0.0,64.83,0,0,0.03,0.09,-0.99,3.99,-4.2,-2.73,-77.61,78.08,-48.22,0.0,False,0.0,0.0,0.0,0.0
8318.0,8318.0,0.0,0.0,0.0,64.83,0,0,0.03,0.09,-0.99,3.99,-4.2,-2.73,-77.61,78.08,-48.22,0.0,False,0.0,0.0,0.0,0.0
8318.0,8318.0,0.0,0.0,0.0,64.83,0,0,0.03,0.09,-0.99,3.99,-4.2,-2.73,-77.61,78.08,-48.22,0.0,False,0.0,0.0,0.0,0.0
8318.0,8318.0,0.0,0.0,0.0,64.83,0,0,0.03,0.09,-0.99,3.99,-4.2,-2.73,-77.61,78.08,-48.22,0.0,False,0.0,0.0,0.0,0.0
8338.0,8338.0,0.0,0.0,0.0,64.83,0,0,0.03,0.09,-0.99,3.85,-3.99,-2.73,-77.61,78.08,-48.22,0.0,False,0.0,0.0,0.0,0.0
8338.0,8338.0,0.0,0.0,0.0,64.83,0,0,0.03,0.09,-0.99,3.85,-3.99,-2.73,-77.61,78.08,-48.22,0.0,False,0.0,0.0,0.0,0.0
8338.0,8338.0,0.0,0.0,0.0,64.83,0,0,0.03,0.09,-0.99,3.85,-3.99,-2.73,-77.61,78.08,-48.22,0.0,False,0.0,0.0,0.0,0.0
8338.0,8338.0,0.0,0.0,0.0,64.83,0,0,0.03,0.09,-0.99,3.85,-3.99,-2.73,-77.61,78.08,-48.22,0.0,False,0.0,0.0,0.0,0.0
8338.0,8338.0,0.0,0.0,0.0,64.83,0,0,0.03,0.09,-0.99,3.85,-3.99,-2.73,-77.61,78.08,-48.22,0.0,False,0.0,0.0,0.0,0.0
8361.0,8361.0,0.0,0.0,0.0,64.83,0,0,0.03,0.1,-0.99,3.78,-3.99,-2.66,-77.61,78.08,-48.22,0.0,False,0.0,0.0,0.0,0.0
8361.0,8361.0,0.0,0.0,0.0,64.83,0,0,0.03,0.1,-0.99,3.78,-3.99,-2.66,-77.61,78.08,-48.22,0.0,False,0.0,0.0,0.0,0.0
8361.0,8361.0,0.0,0.0,0.0,64.83,0,0,0.03,0.1,-0.99,3.78,-3.99,-2.66,-77.61,78.08,-48.22,0.0,False,0.0,0.0,0.0,0.0
8361.0,8361.0,0.0,0.0,0.0,64.83,0,0,0.03,0.1,-0.99,3.78,-3.99,-2.66,-77.61,78.08,-48.22,0.0,False,0.0,0.0,0.0,0.0
8361.0,8361.0,0.0,0.0,0.0,64.83,0,0,0.03,0.1,-0.99,3.78,-3.99,-2.66,-77.61,78.08,-48.22,0.0,False,0.0,0.0,0.0,0.0
8384.0,8384.0,0.0,0.0,0.0,64.83,0,0,0.03,0.09,-1.0,3.92,-3.92,-2.8,-77.61,78.08,-48.22,0.0,False,0.0,0.0,0.0,0.0
8384.0,8384.0,0.0,0.0,0.0,64.83,0,0,0.03,0.09,-1.0,3.92,-3.92,-2.8,-77.61,78.08,-48.22,0.0,False,0.0,0.0,0.0,0.0
8384.0,8384.0,0.0,0.0,0.0,64.83,0,0,0.03,0.09,-1.0,3.92,-3.92,-2.8,-77.61,78.08,-48.22,0.0,False,0.0,0.0,0.0,0.0
8384.0,8384.0,0.0,0.0,0.0,64.83,0,0,0.03,0.09,-1.0,3.92,-3.92,-2.8,-77.61,78.08,-48.22,0.0,False,0.0,0.0,0.0,0.0
8404.0,8404.0,0.0,0.0,0.0,64.83,0,0,0.03,0.09,-0.99,3.64,-3.85,-2.66,-77.61,78.08,-47.68,0.0,False,0.0,0.0,0.0,0.0
8404.0,8404.0,0.0,0.0,0.0,64.83,0,0,0.03,0.09,-0.99,3.64,-3.85,-2.66,-77.61,78.08,-47.68,0.0,False,0.0,0.0,0.0,0.0
8404.0,8404.0,0.0,0.0,0.0,64.83,0,0,0.03,0.09,-0.99,3.64,-3.85,-2.66,-77.61,78.08,-47.68,0.0,False,0.0,0.0,0.0,0.0
8404.0,8404.0,0.0,0.0,0.0,64.83,0,0,0.03,0.09,-0.99,3.64,-3.85,-2.66,-77.61,78.08,-47.68,0.0,False,0.0,0.0,0.0,0.0
8404.0,8404.0,0.0,0.0,0.0,64.83,0,0,0.03,0.09,-0.99,3.64,-3.85,-2.66,-77.61,78.08,-47.68,0.0,False,0.0,0.0,0.0,0.0
8427.0,8427.0,0.0,0.0,0.0,64.98,0,0,0.03,0.09,-1.0,3.85,-3.99,-2.94,-77.92,77.96,-47.68,0.0,False,0.0,0.0,0.0,0.0
8427.0,8427.0,0.0,0.0,0.0,64.98,0,0,0.03,0.09,-1.0,3.85,-3.99,-2.94,-77.92,77.96,-47.68,0.0,False,0.0,0.0,0.0,0.0
8427.0,8427.0,0.0,0.0,0.0,64.98,0,0,0.03,0.09,-1.0,3.85,-3.99,-2.94,-77.92,77.96,-47.68,0.0,False,0.0,0.0,0.0,0.0
8427.0,8427.0,0.0,0.0,0.0,64.98,0,0,0.03,0.09,-1.0,3.85,-3.99,-2.94,-77.92,77.96,-47.68,0.0,False,0.0,0.0,0.0,0.0
8447.0,8447.0,0.0,0.0,0.0,64.98,0,0,0.03,0.09,-1.0,3.57,-4.2,-2.8,-77.92,77.96,-47.68,0.0,False,0.0,0.0,0.0,0.0
8447.0,8447.0,0.0,0.0,0.0,64.98,0,0,0.03,0.09,-1.0,3.57,-4.2,-2.8,-77.92,77.96,-47.68,0.0,False,0.0,0.0,0.0,0.0
8447.0,8447.0,0.0,0.0,0.0,64.98,0,0,0.03,0.09,-1.0,3.57,-4.2,-2.8,-77.92,77.96,-47.68,0.0,False,0.0,0.0,0.0,0.0
8447.0,8447.0,0.0,0.0,0.0,64.98,0,0,0.03,0.09,-1.0,3.57,-4.2,-2.8,-77.92,77.96,-47.68,0.0,False,0.0,0.0,0.0,0.0
8447.0,8447.0,0.0,0.0,0.0,64.98,0,0,0.03,0.09,-1.0,3.57,-4.2,-2.8,-77.92,77.96,-47.68,0.0,False,0.0,0.0,0.0,0.0
8469.0,8469.0,0.0,0.0,0.0,64.98,0,0,0.03,0.09,-0.99,3.78,-4.13,-2.52,-77.92,77.96,-47.68,0.0,False,0.0,0.0,0.0,0.0
8469.0,8469.0,0.0,0.0,0.0,64.98,0,0,0.03,0.09,-0.99,3.78,-4.13,-2.52,-77.92,77.96,-47.68,0.0,False,0.0,0.0,0.0,0.0
8469.0,8469.0,0.0,0.0,0.0,64.98,0,0,0.03,0.09,-0.99,3.78,-4.13,-2.52,-77.92,77.96,-47.68,0.0,False,0.0,0.0,0.0,0.0
8469.0,8469.0,0.0,0.0,0.0,64.98,0,0,0.03,0.09,-0.99,3.78,-4.13,-2.52,-77.92,77.96,-47.68,0.0,False,0.0,0.0,0.0,0.0
8489.0,8489.0,0.0,0.0,0.0,64.98,0,0,0.03,0.09,-0.99,3.78,-4.13,-2.73,-77.92,77.96,-47.68,0.0,False,0.0,0.0,0.0,0.0
8489.0,8489.0,0.0,0.0,0.0,64.98,0,0,0.03,0.09,-0.99,3.78,-4.13,-2.73,-77.92,77.96,-47.68,0.0,False,0.0,0.0,0.0,0.0
8489.0,8489.0,0.0,0.0,0.0,64.98,0,0,0.03,0.09,-0.99,3.78,-4.13,-2.73,-77.92,77.96,-47.68,0.0,False,0.0,0.0,0.0,0.0
8489.0,8489.0,0.0,0.0,0.0,64.98,0,0,0.03,0.09,-0.99,3.78,-4.13,-2.73,-77.92,77.96,-47.68,0.0,False,0.0,0.0,0.0,0.0
8509.0,8509.0,0.0,0.0,0.0,64.84,0,0,0.03,0.09,-1.0,3.85,-4.13,-2.59,-77.42,77.86,-47.57,0.0,False,0.0,0.0,0.0,0.0
8509.0,8509.0,0.0,0.0,0.0,64.84,0,0,0.03,0.09,-1.0,3.85,-4.13,-2.59,-77.42,77.86,-47.57,0.0,False,0.0,0.0,0.0,0.0
8509.0,8509.0,0.0,0.0,0.0,64.84,0,0,0.03,0.09,-1.0,3.85,-4.13,-2.59,-77.42,77.86,-47.57,0.0,False,0.0,0.0,0.0,0.0
8509.0,8509.0,0.0,0.0,0.0,64.84,0,0,0.03,0.09,-1.0,3.85,-4.13,-2.59,-77.42,77.86,-47.57,0.0,False,0.0,0.0,0.0,0.0
8529.0,8529.0,0.0,0.0,0.0,64.84,0,0,0.03,0.1,-0.99,3.92,-4.06,-2.8,-77.42,77.86,-47.57,0.0,False,0.0,0.0,0.0,0.0
8529.0,8529.0,0.0,0.0,0.0,64.84,0,0,0.03,0.1,-0.99,3.92,-4.06,-2.8,-77.42,77.86,-47.57,0.0,False,0.0,0.0,0.0,0.0
8529.0,8529.0,0.0,0.0,0.0,64.84,0,0,0.03,0.1,-0.99,3.92,-4.06,-2.8,-77.42,77.86,-47.57,0.0,False,0.0,0.0,0.0,0.0
8529.0,8529.0,0.0,0.0,0.0,64.84,0,0,0.03,0.1,-0.99,3.92,-4.06,-2.8,-77.42,77.86,-47.57,0.0,False,0.0,0.0,0.0,0.0
8549.0,8549.0,0.0,0.0,0.0,64.84,0,0,0.03,0.1,-0.99,3.64,-3.99,-2.73,-77.42,77.86,-47.57,0.0,False,0.0,0.0,0.0,0.0
8549.0,8549.0,0.0,0.0,0.0,64.84,0,0,0.03,0.1,-0.99,3.64,-3.99,-2.73,-77.42,77.86,-47.57,0.0,False,0.0,0.0,0.0,0.0
8549.0,8549.0,0.0,0.0,0.0,64.84,0,0,0.03,0.1,-0.99,3.64,-3.99,-2.73,-77.42,77.86,-47.57,0.0,False,0.0,0.0,0.0,0.0
8549.0,8549.0,0.0,0.0,0.0,64.84,0,0,0.03,0.1,-0.99,3.64,-3.99,-2.73,-77.42,77.86,-47.57,0.0,False,0.0,0.0,0.0,0.0
8569.0,8569.0,0.0,0.0,0.0,64.84,0,0,0.03,0.09,-1.0,3.78,-4.2,-2.73,-77.42,77.86,-47.57,0.0,False,0.0,0.0,0.0,0.0
8569.0,8569.0,0.0,0.0,0.0,64.84,0,0,0.03,0.09,-1.0,3.78,-4.2,-2.73,-77.42,77.86,-47.57,0.0,False,0.0,0.0,0.0,0.0
8569.0,8569.0,0.0,0.0,0.0,64.84,0,0,0.03,0.09,-1.0,3.78,-4.2,-2.73,-77.42,77.86,-47.57,0.0,False,0.0,0.0,0.0,0.0
8569.0,8569.0,0.0,0.0,0.0,64.84,0,0,0.03,0.09,-1.0,3.78,-4.2,-2.73,-77.42,77.86,-47.57,0.0,False,0.0,0.0,0.0,0.0
8569.0,8569.0,0.0,0.0,0.0,64.84,0,0,0.03,0.09,-1.0,3.78,-4.2,-2.73,-77.42,77.86,-47.57,0.0,False,0.0,0.0,0.0,0.0
8591.0,8591.0,0.0,0.0,0.0,64.84,0,0,0.03,0.1,-0.99,3.85,-4.13,-2.8,-77.42,77.86,-47.57,0.0,False,0.0,0.0,0.0,0.0
8591.0,8591.0,0.0,0.0,0.0,64.84,0,0,0.03,0.1,-0.99,3.85,-4.13,-2.8,-77.42,77.86,-47.57,0.0,False,0.0,0.0,0.0,0.0
8591.0,8591.0,0.0,0.0,0.0,64.84,0,0,0.03,0.1,-0.99,3.85,-4.13,-2.8,-77.42,77.86,-47.57,0.0,False,0.0,0.0,0.0,0.0
8591.0,8591.0,0.0,0.0,0.0,64.84,0,0,0.03,0.1,-0.99,3.85,-4.13,-2.8,-77.42,77.86,-47.57,0.0,False,0.0,0.0,0.0,0.0
8611.0,8611.0,0.0,0.0,0.0,64.94,0,0,0.03,0.09,-0.99,3.92,-3.99,-2.66,-77.92,78.08,-48.04,0.0,False,0.0,0.0,0.0,0.0
8611.0,8611.0,0.0,0.0,0.0,64.94,0,0,0.03,0.09,-0.99,3.92,-3.99,-2.66,-77.92,78.08,-48.04,0.0,False,0.0,0.0,0.0,0.0
8611.0,8611.0,0.0,0.0,0.0,64.94,0,0,0.03,0.09,-0.99,3.92,-3.99,-2.66,-77.92,78.08,-48.04,0.0,False,0.0,0.0,0.0,0.0
8611.0,8611.0,0.0,0.0,0.0,64.94,0,0,0.03,0.09,-0.99,3.92,-3.99,-2.66,-77.92,78.08,-48.04,0.0,False,0.0,0.0,0.0,0.0
8631.0,8631.0,0.0,0.0,0.0,64.94,0,0,0.02,0.09,-0.99,3.85,-3.99,-2.73,-77.92,78.08,-48.04,0.0,False,0.0,0.0,0.0,0.0
8631.0,8631.0,0.0,0.0,0.0,64.94,0,0,0.02,0.09,-0.99,3.85,-3.99,-2.73,-77.92,78.08,-48.04,0.0,False,0.0,0.0,0.0,0.0
8631.0,8631.0,0.0,0.0,0.0,64.94,0,0,0.02,0.09,-0.99,3.85,-3.99,-2.73,-77.92,78.08,-48.04,0.0,False,0.0,0.0,0.0,0.0
8631.0,8631.0,0.0,0.0,0.0,64.94,0,0,0.02,0.09,-0.99,3.85,-3.99,-2.73,-77.92,78.08,-48.04,0.0,False,0.0,0.0,0.0,0.0
8651.0,8651.0,0.0,0.0,0.0,64.94,0,0,0.03,0.09,-0.99,3.85,-4.06,-2.59,-77.92,78.08,-48.04,0.0,False,0.0,0.0,0.0,0.0
8651.0,8651.0,0.0,0.0,0.0,64.94,0,0,0.03,0.09,-0.99,3.85,-4.06,-2.59,-77.92,78.08,-48.04,0.0,False,0.0,0.0,0.0,0.0
8651.0,8651.0,0.0,0.0,0.0,64.94,0,0,0.03,0.09,-0.99,3.85,-4.06,-2.59,-77.92,78.08,-48.04,0.0,False,0.0,0.0,0.0,0.0
8651.0,8651.0,0.0,0.0,0.0,64.94,0,0,0.03,0.09,-0.99,3.85,-4.06,-2.59,-77.92,78.08,-48.04,0.0,False,0.0,0.0,0.0,0.0
8671.0,8671.0,0.0,0.0,0.0,64.94,0,0,0.03,0.09,-0.99,3.85,-3.92,-2.8,-77.92,78.08,-48.04,0.0,False,0.0,0.0,0.0,0.0
8671.0,8671.0,0.0,0.0,0.0,64.94,0,0,0.03,0.09,-0.99,3.85,-3.92,-2.8,-77.92,78.08,-48.04,0.0,False,0.0,0.0,0.0,0.0
8671.0,8671.0,0.0,0.0,0.0,64.94,0,0,0.03,0.09,-0.99,3.85,-3.92,-2.8,-77.92,78.08,-48.04,0.0,False,0.0,0.0,0.0,0.0
8671.0,8671.0,0.0,0.0,0.0,64.94,0,0,0.03,0.09,-0.99,3.85,-3.92,-2.8,-77.92,78.08,-48.04,0.0,False,0.0,0.0,0.0,0.0
8691.0,8691.0,0.0,0.0,0.0,64.94,0,0,0.03,0.09,-0.99,3.71,-3.99,-2.94,-77.92,78.08,-48.04,0.0,False,0.0,0.0,0.0,0.0
8691.0,8691.0,0.0,0.0,0.0,64.94,0,0,0.03,0.09,-0.99,3.71,-3.99,-2.94,-77.92,78.08,-48.04,0.0,False,0.0,0.0,0.0,0.0
8691.0,8691.0,0.0,0.0,0.0,64.94,0,0,0.03,0.09,-0.99,3.71,-3.99,-2.94,-77.92,78.08,-48.04,0.0,False,0.0,0.0,0.0,0.0
8691.0,8691.0,0.0,0.0,0.0,64.94,0,0,0.03,0.09,-0.99,3.71,-3.99,-2.94,-77.92,78.08,-48.04,0.0,False,0.0,0.0,0.0,0.0
8691.0,8691.0,0.0,0.0,0.0,64.94,0,0,0.03,0.09,-0.99,3.71,-3.99,-2.94,-77.92,78.08,-48.04,0.0,False,0.0,0.0,0.0,0.0
