timestamp,timestamp,penX,penY,robotHeading,heading,L_steps,R_steps,accX,accY,accZ,gyroX,gyroY,gyroZ,magX,magY,magZ,batt,isMoving,targetL,actualV,targetW,actualW
52600.0,52600.0,0.0,0.0,0.0,78.9,1,0,0.03,0.1,-0.99,3.71,-4.06,-3.43,-90.87,54.82,-47.63,0.0,False,0.0,0.0,0.0,0.0
52621.0,52621.0,0.0,0.0,0.0,78.9,1,0,0.03,0.1,-1.0,3.78,-4.06,-3.5,-90.87,54.82,-47.63,0.0,False,0.0,0.0,0.0,0.0
52621.0,52621.0,0.0,0.0,0.0,78.9,1,0,0.03,0.1,-1.0,3.78,-4.06,-3.5,-90.87,54.82,-47.63,0.0,False,0.0,0.0,0.0,0.0
52621.0,52621.0,0.0,0.0,0.0,78.9,1,0,0.03,0.1,-1.0,3.78,-4.06,-3.5,-90.87,54.82,-47.63,0.0,False,0.0,0.0,0.0,0.0
52621.0,52621.0,0.0,0.0,0.0,78.9,1,0,0.03,0.1,-1.0,3.78,-4.06,-3.5,-90.87,54.82,-47.63,0.0,False,0.0,0.0,0.0,0.0
52641.0,52641.0,0.0,0.0,0.0,78.9,1,0,0.02,0.1,-1.0,3.92,-4.13,-3.57,-90.87,54.82,-47.63,0.0,False,0.0,0.0,0.0,0.0
52641.0,52641.0,0.0,0.0,0.0,78.9,1,0,0.02,0.1,-1.0,3.92,-4.13,-3.57,-90.87,54.82,-47.63,0.0,False,0.0,0.0,0.0,0.0
52641.0,52641.0,0.0,0.0,0.0,78.9,1,0,0.02,0.1,-1.0,3.92,-4.13,-3.57,-90.87,54.82,-47.63,0.0,False,0.0,0.0,0.0,0.0
52641.0,52641.0,0.0,0.0,0.0,78.9,1,0,0.02,0.1,-1.0,3.92,-4.13,-3.57,-90.87,54.82,-47.63,0.0,False,0.0,0.0,0.0,0.0
52641.0,52641.0,0.0,0.0,0.0,78.9,1,0,0.02,0.1,-1.0,3.92,-4.13,-3.57,-90.87,54.82,-47.63,0.0,False,0.0,0.0,0.0,0.0
52664.0,52664.0,0.0,0.0,0.0,78.9,1,0,0.03,0.1,-0.99,3.71,-3.78,-3.57,-90.87,54.82,-47.63,0.0,False,0.0,0.0,0.0,0.0
52664.0,52664.0,0.0,0.0,0.0,78.9,1,0,0.03,0.1,-0.99,3.71,-3.78,-3.57,-90.87,54.82,-47.63,0.0,False,0.0,0.0,0.0,0.0
52664.0,52664.0,0.0,0.0,0.0,78.9,1,0,0.03,0.1,-0.99,3.71,-3.78,-3.57,-90.87,54.82,-47.63,0.0,False,0.0,0.0,0.0,0.0
52664.0,52664.0,0.0,0.0,0.0,78.9,1,0,0.03,0.1,-0.99,3.71,-3.78,-3.57,-90.87,54.82,-47.63,0.0,False,0.0,0.0,0.0,0.0
52684.0,52684.0,0.0,0.0,0.0,78.74,1,0,0.03,0.1,-1.0,3.85,-4.2,-3.57,-89.84,54.55,-47.98,0.0,False,0.0,0.0,0.0,0.0
52684.0,52684.0,0.0,0.0,0.0,78.74,1,0,0.03,0.1,-1.0,3.85,-4.2,-3.57,-89.84,54.55,-47.98,0.0,False,0.0,0.0,0.0,0.0
52684.0,52684.0,0.0,0.0,0.0,78.74,1,0,0.03,0.1,-1.0,3.85,-4.2,-3.57,-89.84,54.55,-47.98,0.0,False,0.0,0.0,0.0,0.0
52684.0,52684.0,0.0,0.0,0.0,78.74,1,0,0.03,0.1,-1.0,3.85,-4.2,-3.57,-89.84,54.55,-47.98,0.0,False,0.0,0.0,0.0,0.0
52684.0,52684.0,0.0,0.0,0.0,78.74,1,0,0.03,0.1,-1.0,3.85,-4.2,-3.57,-89.84,54.55,-47.98,0.0,False,0.0,0.0,0.0,0.0
52707.0,52707.0,0.0,0.0,0.0,78.74,1,0,0.03,0.1,-1.0,3.71,-3.92,-3.57,-89.84,54.55,-47.98,0.0,False,0.0,0.0,0.0,0.0
52707.0,52707.0,0.0,0.0,0.0,78.74,1,0,0.03,0.1,-1.0,3.71,-3.92,-3.57,-89.84,54.55,-47.98,0.0,False,0.0,0.0,0.0,0.0
52707.0,52707.0,0.0,0.0,0.0,78.74,1,0,0.03,0.1,-1.0,3.71,-3.92,-3.57,-89.84,54.55,-47.98,0.0,False,0.0,0.0,0.0,0.0
52707.0,52707.0,0.0,0.0,0.0,78.74,1,0,0.03,0.1,-1.0,3.71,-3.92,-3.57,-89.84,54.55,-47.98,0.0,False,0.0,0.0,0.0,0.0
52707.0,52707.0,0.0,0.0,0.0,78.74,1,0,0.03,0.1,-1.0,3.71,-3.92,-3.57,-89.84,54.55,-47.98,0.0,False,0.0,0.0,0.0,0.0
52730.0,52730.0,0.0,0.0,0.0,78.74,1,0,0.03,0.1,-1.0,3.78,-4.27,-3.57,-89.84,54.55,-47.98,0.0,False,0.0,0.0,0.0,0.0
52730.0,52730.0,0.0,0.0,0.0,78.74,1,0,0.03,0.1,-1.0,3.78,-4.27,-3.57,-89.84,54.55,-47.98,0.0,False,0.0,0.0,0.0,0.0
52730.0,52730.0,0.0,0.0,0.0,78.74,1,0,0.03,0.1,-1.0,3.78,-4.27,-3.57,-89.84,54.55,-47.98,0.0,False,0.0,0.0,0.0,0.0
52730.0,52730.0,0.0,0.0,0.0,78.74,1,0,0.03,0.1,-1.0,3.78,-4.27,-3.57,-89.84,54.55,-47.98,0.0,False,0.0,0.0,0.0,0.0
52730.0,52730.0,0.0,0.0,0.0,78.74,1,0,0.03,0.1,-1.0,3.78,-4.27,-3.57,-89.84,54.55,-47.98,0.0,False,0.0,0.0,0.0,0.0
52753.0,52753.0,0.0,0.0,0.0,78.74,1,0,0.03,0.1,-1.0,3.78,-4.2,-3.5,-89.84,54.55,-47.98,0.0,False,0.0,0.0,0.0,0.0
52753.0,52753.0,0.0,0.0,0.0,78.74,1,0,0.03,0.1,-1.0,3.78,-4.2,-3.5,-89.84,54.55,-47.98,0.0,False,0.0,0.0,0.0,0.0
52753.0,52753.0,0.0,0.0,0.0,78.74,1,0,0.03,0.1,-1.0,3.78,-4.2,-3.5,-89.84,54.55,-47.98,0.0,False,0.0,0.0,0.0,0.0
52753.0,52753.0,0.0,0.0,0.0,78.74,1,0,0.03,0.1,-1.0,3.78,-4.2,-3.5,-89.84,54.55,-47.98,0.0,False,0.0,0.0,0.0,0.0
52753.0,52753.0,0.0,0.0,0.0,78.74,1,0,0.03,0.1,-1.0,3.78,-4.2,-3.5,-89.84,54.55,-47.98,0.0,False,0.0,0.0,0.0,0.0
52776.0,52776.0,0.0,0.0,0.0,78.82,1,0,0.03,0.1,-0.99,3.78,-4.27,-3.29,-90.65,54.85,-47.44,0.0,False,0.0,0.0,0.0,0.0
52776.0,52776.0,0.0,0.0,0.0,78.82,1,0,0.03,0.1,-0.99,3.78,-4.27,-3.29,-90.65,54.85,-47.44,0.0,False,0.0,0.0,0.0,0.0
52776.0,52776.0,0.0,0.0,0.0,78.82,1,0,0.03,0.1,-0.99,3.78,-4.27,-3.29,-90.65,54.85,-47.44,0.0,False,0.0,0.0,0.0,0.0
52776.0,52776.0,0.0,0.0,0.0,78.82,1,0,0.03,0.1,-0.99,3.78,-4.27,-3.29,-90.65,54.85,-47.44,0.0,False,0.0,0.0,0.0,0.0
52776.0,52776.0,0.0,0.0,0.0,78.82,1,0,0.03,0.1,-0.99,3.78,-4.27,-3.29,-90.65,54.85,-47.44,0.0,False,0.0,0.0,0.0,0.0
52799.0,52799.0,0.0,0.0,0.0,78.82,1,0,0.03,0.1,-1.0,3.78,-4.2,-3.5,-90.65,54.85,-47.44,0.0,False,0.0,0.0,0.0,0.0
52799.0,52799.0,0.0,0.0,0.0,78.82,1,0,0.03,0.1,-1.0,3.78,-4.2,-3.5,-90.65,54.85,-47.44,0.0,False,0.0,0.0,0.0,0.0
52799.0,52799.0,0.0,0.0,0.0,78.82,1,0,0.03,0.1,-1.0,3.78,-4.2,-3.5,-90.65,54.85,-47.44,0.0,False,0.0,0.0,0.0,0.0
52799.0,52799.0,0.0,0.0,0.0,78.82,1,0,0.03,0.1,-1.0,3.78,-4.2,-3.5,-90.65,54.85,-47.44,0.0,False,0.0,0.0,0.0,0.0
52799.0,52799.0,0.0,0.0,0.0,78.82,1,0,0.03,0.1,-1.0,3.78,-4.2,-3.5,-90.65,54.85,-47.44,0.0,False,0.0,0.0,0.0,0.0
52821.0,52821.0,0.0,0.0,0.0,78.82,1,0,0.03,0.1,-1.0,3.85,-4.06,-3.5,-90.65,54.85,-47.44,0.0,False,0.0,0.0,0.0,0.0
52821.0,52821.0,0.0,0.0,0.0,78.82,1,0,0.03,0.1,-1.0,3.85,-4.06,-3.5,-90.65,54.85,-47.44,0.0,False,0.0,0.0,0.0,0.0
52821.0,52821.0,0.0,0.0,0.0,78.82,1,0,0.03,0.1,-1.0,3.85,-4.06,-3.5,-90.65,54.85,-47.44,0.0,False,0.0,0.0,0.0,0.0
52821.0,52821.0,0.0,0.0,0.0,78.82,1,0,0.03,0.1,-1.0,3.85,-4.06,-3.5,-90.65,54.85,-47.44,0.0,False,0.0,0.0,0.0,0.0
52841.0,52841.0,0.0,0.0,0.0,78.82,1,0,0.03,0.09,-1.0,3.85,-4.06,-3.43,-90.65,54.85,-47.44,0.0,False,0.0,0.0,0.0,0.0
52841.0,52841.0,0.0,0.0,0.0,78.82,1,0,0.03,0.09,-1.0,3.85,-4.06,-3.43,-90.65,54.85,-47.44,0.0,False,0.0,0.0,0.0,0.0
52841.0,52841.0,0.0,0.0,0.0,78.82,1,0,0.03,0.09,-1.0,3.85,-4.06,-3.43,-90.65,54.85,-47.44,0.0,False,0.0,0.0,0.0,0.0
52841.0,52841.0,0.0,0.0,0.0,78.82,1,0,0.03,0.09,-1.0,3.85,-4.06,-3.43,-90.65,54.85,-47.44,0.0,False,0.0,0.0,0.0,0.0
52861.0,52861.0,0.0,0.0,0.0,78.82,1,0,0.03,0.1,-0.99,3.85,-3.99,-3.43,-90.65,54.85,-47.44,0.0,False,0.0,0.0,0.0,0.0
52861.0,52861.0,0.0,0.0,0.0,78.82,1,0,0.03,0.1,-0.99,3.85,-3.99,-3.43,-90.65,54.85,-47.44,0.0,False,0.0,0.0,0.0,0.0
52861.0,52861.0,0.0,0.0,0.0,78.82,1,0,0.03,0.1,-0.99,3.85,-3.99,-3.43,-90.65,54.85,-47.44,0.0,False,0.0,0.0,0.0,0.0
52861.0,52861.0,0.0,0.0,0.0,78.82,1,0,0.03,0.1,-0.99,3.85,-3.99,-3.43,-90.65,54.85,-47.44,0.0,False,0.0,0.0,0.0,0.0
52881.0,52881.0,0.0,0.0,0.0,78.71,1,0,0.03,0.1,-1.0,3.78,-3.99,-3.5,-90.75,55.16,-47.14,0.0,False,0.0,0.0,0.0,0.0
52881.0,52881.0,0.0,0.0,0.0,78.71,1,0,0.03,0.1,-1.0,3.78,-3.99,-3.5,-90.75,55.16,-47.14,0.0,False,0.0,0.0,0.0,0.0
52881.0,52881.0,0.0,0.0,0.0,78.71,1,0,0.03,0.1,-1.0,3.78,-3.99,-3.5,-90.75,55.16,-47.14,0.0,False,0.0,0.0,0.0,0.0
52881.0,52881.0,0.0,0.0,0.0,78.71,1,0,0.03,0.1,-1.0,3.78,-3.99,-3.5,-90.75,55.16,-47.14,0.0,False,0.0,0.0,0.0,0.0
52881.0,52881.0,0.0,0.0,0.0,78.71,1,0,0.03,0.1,-1.0,3.78,-3.99,-3.5,-90.75,55.16,-47.14,0.0,False,0.0,0.0,0.0,0.0
52903.0,52903.0,0.0,0.0,0.0,78.71,1,0,0.02,0.1,-1.0,3.71,-4.2,-3.78,-90.75,55.16,-47.14,0.0,False,0.0,0.0,0.0,0.0
52903.0,52903.0,0.0,0.0,0.0,78.71,1,0,0.02,0.1,-1.0,3.71,-4.2,-3.78,-90.75,55.16,-47.14,0.0,False,0.0,0.0,0.0,0.0
52903.0,52903.0,0.0,0.0,0.0,78.71,1,0,0.02,0.1,-1.0,3.71,-4.2,-3.78,-90.75,55.16,-47.14,0.0,False,0.0,0.0,0.0,0.0
52903.0,52903.0,0.0,0.0,0.0,78.71,1,0,0.02,0.1,-1.0,3.71,-4.2,-3.78,-90.75,55.16,-47.14,0.0,False,0.0,0.0,0.0,0.0
52923.0,52923.0,0.0,0.0,0.0,78.71,1,0,0.03,0.1,-0.99,3.78,-3.92,-3.5,-90.75,55.16,-47.14,0.0,False,0.0,0.0,0.0,0.0
52923.0,52923.0,0.0,0.0,0.0,78.71,1,0,0.03,0.1,-0.99,3.78,-3.92,-3.5,-90.75,55.16,-47.14,0.0,False,0.0,0.0,0.0,0.0
52923.0,52923.0,0.0,0.0,0.0,78.71,1,0,0.03,0.1,-0.99,3.78,-3.92,-3.5,-90.75,55.16,-47.14,0.0,False,0.0,0.0,0.0,0.0
52923.0,52923.0,0.0,0.0,0.0,78.71,1,0,0.03,0.1,-0.99,3.78,-3.92,-3.5,-90.75,55.16,-47.14,0.0,False,0.0,0.0,0.0,0.0
52943.0,52943.0,0.0,0.0,0.0,78.71,1,0,0.02,0.1,-1.0,3.71,-3.99,-3.5,-90.75,55.16,-47.14,0.0,False,0.0,0.0,0.0,0.0
52943.0,52943.0,0.0,0.0,0.0,78.71,1,0,0.02,0.1,-1.0,3.71,-3.99,-3.5,-90.75,55.16,-47.14,0.0,False,0.0,0.0,0.0,0.0
52943.0,52943.0,0.0,0.0,0.0,78.71,1,0,0.02,0.1,-1.0,3.71,-3.99,-3.5,-90.75,55.16,-47.14,0.0,False,0.0,0.0,0.0,0.0
52943.0,52943.0,0.0,0.0,0.0,78.71,1,0,0.02,0.1,-1.0,3.71,-3.99,-3.5,-90.75,55.16,-47.14,0.0,False,0.0,0.0,0.0,0.0
52963.0,52963.0,0.0,0.0,0.0,78.71,1,0,0.03,0.1,-1.0,3.71,-3.99,-3.43,-90.37,54.79,-46.81,0.0,False,0.0,0.0,0.0,0.0
52963.0,52963.0,0.0,0.0,0.0,78.71,1,0,0.03,0.1,-1.0,3.71,-3.99,-3.43,-90.37,54.79,-46.81,0.0,False,0.0,0.0,0.0,0.0
52963.0,52963.0,0.0,0.0,0.0,78.71,1,0,0.03,0.1,-1.0,3.71,-3.99,-3.43,-90.37,54.79,-46.81,0.0,False,0.0,0.0,0.0,0.0
52963.0,52963.0,0.0,0.0,0.0,78.71,1,0,0.03,0.1,-1.0,3.71,-3.99,-3.43,-90.37,54.79,-46.81,0.0,False,0.0,0.0,0.0,0.0
52963.0,52963.0,0.0,0.0,0.0,78.71,1,0,0.03,0.1,-1.0,3.71,-3.99,-3.43,-90.37,54.79,-46.81,0.0,False,0.0,0.0,0.0,0.0
52986.0,52986.0,0.0,0.0,0.0,78.77,1,0,0.03,0.1,-0.99,3.78,-4.13,-3.5,-90.37,54.79,-46.81,0.0,False,0.0,0.0,0.0,0.0
52986.0,52986.0,0.0,0.0,0.0,78.77,1,0,0.03,0.1,-0.99,3.78,-4.13,-3.5,-90.37,54.79,-46.81,0.0,False,0.0,0.0,0.0,0.0
52986.0,52986.0,0.0,0.0,0.0,78.77,1,0,0.03,0.1,-0.99,3.78,-4.13,-3.5,-90.37,54.79,-46.81,0.0,False,0.0,0.0,0.0,0.0
52986.0,52986.0,0.0,0.0,0.0,78.77,1,0,0.03,0.1,-0.99,3.78,-4.13,-3.5,-90.37,54.79,-46.81,0.0,False,0.0,0.0,0.0,0.0
52986.0,52986.0,0.0,0.0,0.0,78.77,1,0,0.03,0.1,-0.99,3.78,-4.13,-3.5,-90.37,54.79,-46.81,0.0,False,0.0,0.0,0.0,0.0
53009.0,53009.0,0.0,0.0,0.0,78.77,1,0,0.03,0.1,-0.99,3.78,-3.99,-3.5,-90.37,54.79,-46.81,0.0,False,0.0,0.0,0.0,0.0
53009.0,53009.0,0.0,0.0,0.0,78.77,1,0,0.03,0.1,-0.99,3.78,-3.99,-3.5,-90.37,54.79,-46.81,0.0,False,0.0,0.0,0.0,0.0
53009.0,53009.0,0.0,0.0,0.0,78.77,1,0,0.03,0.1,-0.99,3.78,-3.99,-3.5,-90.37,54.79,-46.81,0.0,False,0.0,0.0,0.0,0.0
53009.0,53009.0,0.0,0.0,0.0,78.77,1,0,0.03,0.1,-0.99,3.78,-3.99,-3.5,-90.37,54.79,-46.81,0.0,False,0.0,0.0,0.0,0.0
53009.0,53009.0,0.0,0.0,0.0,78.77,1,0,0.03,0.1,-0.99,3.78,-3.99,-3.5,-90.37,54.79,-46.81,0.0,False,0.0,0.0,0.0,0.0
53032.0,53032.0,0.0,0.0,0.0,78.77,1,0,0.03,0.1,-1.0,3.78,-4.06,-3.57,-90.37,54.79,-46.81,0.0,False,0.0,0.0,0.0,0.0
53032.0,53032.0,0.0,0.0,0.0,78.77,1,0,0.03,0.1,-1.0,3.78,-4.06,-3.57,-90.37,54.79,-46.81,0.0,False,0.0,0.0,0.0,0.0
53032.0,53032.0,0.0,0.0,0.0,78.77,1,0,0.03,0.1,-1.0,3.78,-4.06,-3.57,-90.37,54.79,-46.81,0.0,False,0.0,0.0,0.0,0.0
53032.0,53032.0,0.0,0.0,0.0,78.77,1,0,0.03,0.1,-1.0,3.78,-4.06,-3.57,-90.37,54.79,-46.81,0.0,False,0.0,0.0,0.0,0.0
53032.0,53032.0,0.0,0.0,0.0,78.77,1,0,0.03,0.1,-1.0,3.78,-4.06,-3.57,-90.37,54.79,-46.81,0.0,False,0.0,0.0,0.0,0.0
53054.0,53054.0,0.0,0.0,0.0,78.77,1,0,0.03,0.1,-1.0,3.78,-3.92,-3.36,-90.37,54.79,-46.81,0.0,False,0.0,0.0,0.0,0.0
53054.0,53054.0,0.0,0.0,0.0,78.77,1,0,0.03,0.1,-1.0,3.78,-3.92,-3.36,-90.37,54.79,-46.81,0.0,False,0.0,0.0,0.0,0.0
53054.0,53054.0,0.0,0.0,0.0,78.77,1,0,0.03,0.1,-1.0,3.78,-3.92,-3.36,-90.37,54.79,-46.81,0.0,False,0.0,0.0,0.0,0.0
53054.0,53054.0,0.0,0.0,0.0,78.77,1,0,0.03,0.1,-1.0,3.78,-3.92,-3.36,-90.37,54.79,-46.81,0.0,False,0.0,0.0,0.0,0.0
53074.0,53074.0,0.0,0.0,0.0,78.83,1,0,0.03,0.1,-1.0,3.78,-4.2,-3.36,-90.31,54.63,-47.38,0.0,False,0.0,0.0,0.0,0.0
53074.0,53074.0,0.0,0.0,0.0,78.83,1,0,0.03,0.1,-1.0,3.78,-4.2,-3.36,-90.31,54.63,-47.38,0.0,False,0.0,0.0,0.0,0.0
53074.0,53074.0,0.0,0.0,0.0,78.83,1,0,0.03,0.1,-1.0,3.78,-4.2,-3.36,-90.31,54.63,-47.38,0.0,False,0.0,0.0,0.0,0.0
53074.0,53074.0,0.0,0.0,0.0,78.83,1,0,0.03,0.1,-1.0,3.78,-4.2,-3.36,-90.31,54.63,-47.38,0.0,False,0.0,0.0,0.0,0.0
53094.0,53094.0,0.0,0.0,0.0,78.83,1,0,0.03,0.11,-0.99,3.71,-4.27,-3.57,-90.31,54.63,-47.38,0.0,False,0.0,0.0,0.0,0.0
53094.0,53094.0,0.0,0.0,0.0,78.83,1,0,0.03,0.11,-0.99,3.71,-4.27,-3.57,-90.31,54.63,-47.38,0.0,False,0.0,0.0,0.0,0.0
53094.0,53094.0,0.0,0.0,0.0,78.83,1,0,0.03,0.11,-0.99,3.71,-4.27,-3.57,-90.31,54.63,-47.38,0.0,False,0.0,0.0,0.0,0.0
53094.0,53094.0,0.0,0.0,0.0,78.83,1,0,0.03,0.11,-0.99,3.71,-4.27,-3.57,-90.31,54.63,-47.38,0.0,False,0.0,0.0,0.0,0.0
53114.0,53114.0,0.0,0.0,0.0,78.83,1,0,0.03,0.1,-1.0,3.85,-3.99,-3.5,-90.31,54.63,-47.38,0.0,False,0.0,0.0,0.0,0.0
53114.0,53114.0,0.0,0.0,0.0,78.83,1,0,0.03,0.1,-1.0,3.85,-3.99,-3.5,-90.31,54.63,-47.38,0.0,False,0.0,0.0,0.0,0.0
53114.0,53114.0,0.0,0.0,0.0,78.83,1,0,0.03,0.1,-1.0,3.85,-3.99,-3.5,-90.31,54.63,-47.38,0.0,False,0.0,0.0,0.0,0.0
53114.0,53114.0,0.0,0.0,0.0,78.83,1,0,0.03,0.1,-1.0,3.85,-3.99,-3.5,-90.31,54.63,-47.38,0.0,False,0.0,0.0,0.0,0.0
53134.0,53134.0,0.0,0.0,0.0,78.83,1,0,0.03,0.1,-1.0,3.85,-4.13,-3.57,-90.31,54.63,-47.38,0.0,False,0.0,0.0,0.0,0.0
53134.0,53134.0,0.0,0.0,0.0,78.83,1,0,0.03,0.1,-1.0,3.85,-4.13,-3.57,-90.31,54.63,-47.38,0.0,False,0.0,0.0,0.0,0.0
53134.0,53134.0,0.0,0.0,0.0,78.83,1,0,0.03,0.1,-1.0,3.85,-4.13,-3.57,-90.31,54.63,-47.38,0.0,False,0.0,0.0,0.0,0.0
53134.0,53134.0,0.0,0.0,0.0,78.83,1,0,0.03,0.1,-1.0,3.85,-4.13,-3.57,-90.31,54.63,-47.38,0.0,False,0.0,0.0,0.0,0.0
53134.0,53134.0,0.0,0.0,0.0,78.83,1,0,0.03,0.1,-1.0,3.85,-4.13,-3.57,-90.31,54.63,-47.38,0.0,False,0.0,0.0,0.0,0.0
53157.0,53157.0,0.0,0.0,0.0,78.83,1,0,0.03,0.1,-0.99,3.92,-3.99,-3.5,-90.31,54.63,-47.38,0.0,False,0.0,0.0,0.0,0.0
53157.0,53157.0,0.0,0.0,0.0,78.83,1,0,0.03,0.1,-0.99,3.92,-3.99,-3.5,-90.31,54.63,-47.38,0.0,False,0.0,0.0,0.0,0.0
53157.0,53157.0,0.0,0.0,0.0,78.83,1,0,0.03,0.1,-0.99,3.92,-3.99,-3.5,-90.31,54.63,-47.38,0.0,False,0.0,0.0,0.0,0.0
53157.0,53157.0,0.0,0.0,0.0,78.83,1,0,0.03,0.1,-0.99,3.92,-3.99,-3.5,-90.31,54.63,-47.38,0.0,False,0.0,0.0,0.0,0.0
53157.0,53157.0,0.0,0.0,0.0,78.83,1,0,0.03,0.1,-0.99,3.92,-3.99,-3.5,-90.31,54.63,-47.38,0.0,False,0.0,0.0,0.0,0.0
53180.0,53180.0,0.0,0.0,0.0,78.59,1,0,0.02,0.1,-1.0,3.71,-4.13,-3.64,-90.37,55.19,-46.33,0.0,False,0.0,0.0,0.0,0.0
53180.0,53180.0,0.0,0.0,0.0,78.59,1,0,0.02,0.1,-1.0,3.71,-4.13,-3.64,-90.37,55.19,-46.33,0.0,False,0.0,0.0,0.0,0.0
53180.0,53180.0,0.0,0.0,0.0,78.59,1,0,0.02,0.1,-1.0,3.71,-4.13,-3.64,-90.37,55.19,-46.33,0.0,False,0.0,0.0,0.0,0.0
53180.0,53180.0,0.0,0.0,0.0,78.59,1,0,0.02,0.1,-1.0,3.71,-4.13,-3.64,-90.37,55.19,-46.33,0.0,False,0.0,0.0,0.0,0.0
53180.0,53180.0,0.0,0.0,0.0,78.59,1,0,0.02,0.1,-1.0,3.71,-4.13,-3.64,-90.37,55.19,-46.33,0.0,False,0.0,0.0,0.0,0.0
53202.0,53202.0,0.0,0.0,0.0,78.59,1,0,0.03,0.1,-1.0,3.78,-3.92,-3.43,-90.37,55.19,-46.33,0.0,False,0.0,0.0,0.0,0.0
53202.0,53202.0,0.0,0.0,0.0,78.59,1,0,0.03,0.1,-1.0,3.78,-3.92,-3.43,-90.37,55.19,-46.33,0.0,False,0.0,0.0,0.0,0.0
53202.0,53202.0,0.0,0.0,0.0,78.59,1,0,0.03,0.1,-1.0,3.78,-3.92,-3.43,-90.37,55.19,-46.33,0.0,False,0.0,0.0,0.0,0.0
53202.0,53202.0,0.0,0.0,0.0,78.59,1,0,0.03,0.1,-1.0,3.78,-3.92,-3.43,-90.37,55.19,-46.33,0.0,False,0.0,0.0,0.0,0.0
53222.0,53222.0,0.0,0.0,0.0,78.59,1,0,0.02,0.1,-1.0,3.78,-4.13,-3.57,-90.37,55.19,-46.33,0.0,False,0.0,0.0,0.0,0.0
53222.0,53222.0,0.0,0.0,0.0,78.59,1,0,0.02,0.1,-1.0,3.78,-4.13,-3.57,-90.37,55.19,-46.33,0.0,False,0.0,0.0,0.0,0.0
53222.0,53222.0,0.0,0.0,0.0,78.59,1,0,0.02,0.1,-1.0,3.78,-4.13,-3.57,-90.37,55.19,-46.33,0.0,False,0.0,0.0,0.0,0.0
53222.0,53222.0,0.0,0.0,0.0,78.59,1,0,0.02,0.1,-1.0,3.78,-4.13,-3.57,-90.37,55.19,-46.33,0.0,False,0.0,0.0,0.0,0.0
53242.0,53242.0,0.0,0.0,0.0,78.59,1,0,0.03,0.1,-0.99,3.85,-4.13,-3.36,-90.37,55.19,-46.33,0.0,False,0.0,0.0,0.0,0.0
53242.0,53242.0,0.0,0.0,0.0,78.59,1,0,0.03,0.1,-0.99,3.85,-4.13,-3.36,-90.37,55.19,-46.33,0.0,False,0.0,0.0,0.0,0.0
53242.0,53242.0,0.0,0.0,0.0,78.59,1,0,0.03,0.1,-0.99,3.85,-4.13,-3.36,-90.37,55.19,-46.33,0.0,False,0.0,0.0,0.0,0.0
53242.0,53242.0,0.0,0.0,0.0,78.59,1,0,0.03,0.1,-0.99,3.85,-4.13,-3.36,-90.37,55.19,-46.33,0.0,False,0.0,0.0,0.0,0.0
53262.0,53262.0,0.0,0.0,0.0,78.59,1,0,0.03,0.1,-1.0,3.64,-4.06,-3.43,-90.21,55.22,-47.53,0.0,False,0.0,0.0,0.0,0.0
53262.0,53262.0,0.0,0.0,0.0,78.59,1,0,0.03,0.1,-1.0,3.64,-4.06,-3.43,-90.21,55.22,-47.53,0.0,False,0.0,0.0,0.0,0.0
53262.0,53262.0,0.0,0.0,0.0,78.59,1,0,0.03,0.1,-1.0,3.64,-4.06,-3.43,-90.21,55.22,-47.53,0.0,False,0.0,0.0,0.0,0.0
53262.0,53262.0,0.0,0.0,0.0,78.59,1,0,0.03,0.1,-1.0,3.64,-4.06,-3.43,-90.21,55.22,-47.53,0.0,False,0.0,0.0,0.0,0.0
53282.0,53282.0,0.0,0.0,0.0,78.53,1,0,0.03,0.1,-1.0,3.92,-3.92,-3.5,-90.21,55.22,-47.53,0.0,False,0.0,0.0,0.0,0.0
53282.0,53282.0,0.0,0.0,0.0,78.53,1,0,0.03,0.1,-1.0,3.92,-3.92,-3.5,-90.21,55.22,-47.53,0.0,False,0.0,0.0,0.0,0.0
53282.0,53282.0,0.0,0.0,0.0,78.53,1,0,0.03,0.1,-1.0,3.92,-3.92,-3.5,-90.21,55.22,-47.53,0.0,False,0.0,0.0,0.0,0.0
53282.0,53282.0,0.0,0.0,0.0,78.53,1,0,0.03,0.1,-1.0,3.92,-3.92,-3.5,-90.21,55.22,-47.53,0.0,False,0.0,0.0,0.0,0.0
53282.0,53282.0,0.0,0.0,0.0,78.53,1,0,0.03,0.1,-1.0,3.92,-3.92,-3.5,-90.21,55.22,-47.53,0.0,False,0.0,0.0,0.0,0.0
53304.0,53304.0,0.0,0.0,0.0,78.53,1,0,0.02,0.1,-0.99,3.78,-4.06,-3.57,-90.21,55.22,-47.53,0.0,False,0.0,0.0,0.0,0.0
53304.0,53304.0,0.0,0.0,0.0,78.53,1,0,0.02,0.1,-0.99,3.78,-4.06,-3.57,-90.21,55.22,-47.53,0.0,False,0.0,0.0,0.0,0.0
53304.0,53304.0,0.0,0.0,0.0,78.53,1,0,0.02,0.1,-0.99,3.78,-4.06,-3.57,-90.21,55.22,-47.53,0.0,False,0.0,0.0,0.0,0.0
53304.0,53304.0,0.0,0.0,0.0,78.53,1,0,0.02,0.1,-0.99,3.78,-4.06,-3.57,-90.21,55.22,-47.53,0.0,False,0.0,0.0,0.0,0.0
53324.0,53324.0,0.0,0.0,0.0,78.53,1,0,0.02,0.1,-0.99,3.71,-3.85,-3.57,-90.21,55.22,-47.53,0.0,False,0.0,0.0,0.0,0.0
53324.0,53324.0,0.0,0.0,0.0,78.53,1,0,0.02,0.1,-0.99,3.71,-3.85,-3.57,-90.21,55.22,-47.53,0.0,False,0.0,0.0,0.0,0.0
53324.0,53324.0,0.0,0.0,0.0,78.53,1,0,0.02,0.1,-0.99,3.71,-3.85,-3.57,-90.21,55.22,-47.53,0.0,False,0.0,0.0,0.0,0.0
53324.0,53324.0,0.0,0.0,0.0,78.53,1,0,0.02,0.1,-0.99,3.71,-3.85,-3.57,-90.21,55.22,-47.53,0.0,False,0.0,0.0,0.0,0.0
53344.0,53344.0,0.0,0.0,0.0,78.53,1,0,0.03,0.1,-0.99,3.71,-3.92,-3.43,-90.21,55.22,-47.53,0.0,False,0.0,0.0,0.0,0.0
53344.0,53344.0,0.0,0.0,0.0,78.53,1,0,0.03,0.1,-0.99,3.71,-3.92,-3.43,-90.21,55.22,-47.53,0.0,False,0.0,0.0,0.0,0.0
53344.0,53344.0,0.0,0.0,0.0,78.53,1,0,0.03,0.1,-0.99,3.71,-3.92,-3.43,-90.21,55.22,-47.53,0.0,False,0.0,0.0,0.0,0.0
53344.0,53344.0,0.0,0.0,0.0,78.53,1,0,0.03,0.1,-0.99,3.71,-3.92,-3.43,-90.21,55.22,-47.53,0.0,False,0.0,0.0,0.0,0.0
53364.0,53364.0,0.0,0.0,0.0,78.92,1,0,0.03,0.1,-1.0,3.85,-4.13,-3.5,-90.47,54.53,-47.38,0.0,False,0.0,0.0,0.0,0.0
53364.0,53364.0,0.0,0.0,0.0,78.92,1,0,0.03,0.1,-1.0,3.85,-4.13,-3.5,-90.47,54.53,-47.38,0.0,False,0.0,0.0,0.0,0.0
53364.0,53364.0,0.0,0.0,0.0,78.92,1,0,0.03,0.1,-1.0,3.85,-4.13,-3.5,-90.47,54.53,-47.38,0.0,False,0.0,0.0,0.0,0.0
53364.0,53364.0,0.0,0.0,0.0,78.92,1,0,0.03,0.1,-1.0,3.85,-4.13,-3.5,-90.47,54.53,-47.38,0.0,False,0.0,0.0,0.0,0.0
53364.0,53364.0,0.0,0.0,0.0,78.92,1,0,0.03,0.1,-1.0,3.85,-4.13,-3.5,-90.47,54.53,-47.38,0.0,False,0.0,0.0,0.0,0.0
53387.0,53387.0,0.0,0.0,0.0,78.92,1,0,0.03,0.1,-0.99,3.64,-3.92,-3.5,-90.47,54.53,-47.38,0.0,False,0.0,0.0,0.0,0.0
53387.0,53387.0,0.0,0.0,0.0,78.92,1,0,0.03,0.1,-0.99,3.64,-3.92,-3.5,-90.47,54.53,-47.38,0.0,False,0.0,0.0,0.0,0.0
53387.0,53387.0,0.0,0.0,0.0,78.92,1,0,0.03,0.1,-0.99,3.64,-3.92,-3.5,-90.47,54.53,-47.38,0.0,False,0.0,0.0,0.0,0.0
53387.0,53387.0,0.0,0.0,0.0,78.92,1,0,0.03,0.1,-0.99,3.64,-3.92,-3.5,-90.47,54.53,-47.38,0.0,False,0.0,0.0,0.0,0.0
53387.0,53387.0,0.0,0.0,0.0,78.92,1,0,0.03,0.1,-0.99,3.64,-3.92,-3.5,-90.47,54.53,-47.38,0.0,False,0.0,0.0,0.0,0.0
53409.0,53409.0,0.0,0.0,0.0,78.92,1,0,0.03,0.1,-1.0,3.71,-4.06,-3.43,-90.47,54.53,-47.38,0.0,False,0.0,0.0,0.0,0.0
53409.0,53409.0,0.0,0.0,0.0,78.92,1,0,0.03,0.1,-1.0,3.71,-4.06,-3.43,-90.47,54.53,-47.38,0.0,False,0.0,0.0,0.0,0.0
53409.0,53409.0,0.0,0.0,0.0,78.92,1,0,0.03,0.1,-1.0,3.71,-4.06,-3.43,-90.47,54.53,-47.38,0.0,False,0.0,0.0,0.0,0.0
53409.0,53409.0,0.0,0.0,0.0,78.92,1,0,0.03,0.1,-1.0,3.71,-4.06,-3.43,-90.47,54.53,-47.38,0.0,False,0.0,0.0,0.0,0.0
53429.0,53429.0,0.0,0.0,0.0,78.92,1,0,0.03,0.1,-0.99,3.78,-3.99,-3.43,-90.47,54.53,-47.38,0.0,False,0.0,0.0,0.0,0.0
53429.0,53429.0,0.0,0.0,0.0,78.92,1,0,0.03,0.1,-0.99,3.78,-3.99,-3.43,-90.47,54.53,-47.38,0.0,False,0.0,0.0,0.0,0.0
53429.0,53429.0,0.0,0.0,0.0,78.92,1,0,0.03,0.1,-0.99,3.78,-3.99,-3.43,-90.47,54.53,-47.38,0.0,False,0.0,0.0,0.0,0.0
53429.0,53429.0,0.0,0.0,0.0,78.92,1,0,0.03,0.1,-0.99,3.78,-3.99,-3.43,-90.47,54.53,-47.38,0.0,False,0.0,0.0,0.0,0.0
53449.0,53449.0,0.0,0.0,0.0,78.92,1,0,0.03,0.1,-0.99,3.64,-4.06,-3.29,-90.47,54.53,-47.38,0.0,False,0.0,0.0,0.0,0.0
53449.0,53449.0,0.0,0.0,0.0,78.92,1,0,0.03,0.1,-0.99,3.64,-4.06,-3.29,-90.47,54.53,-47.38,0.0,False,0.0,0.0,0.0,0.0
53449.0,53449.0,0.0,0.0,0.0,78.92,1,0,0.03,0.1,-0.99,3.64,-4.06,-3.29,-90.47,54.53,-47.38,0.0,False,0.0,0.0,0.0,0.0
53449.0,53449.0,0.0,0.0,0.0,78.92,1,0,0.03,0.1,-0.99,3.64,-4.06,-3.29,-90.47,54.53,-47.38,0.0,False,0.0,0.0,0.0,0.0
53469.0,53469.0,0.0,0.0,0.0,78.76,1,0,0.03,0.1,-1.0,3.71,-3.85,-3.5,-90.88,55.12,-47.35,0.0,False,0.0,0.0,0.0,0.0
53469.0,53469.0,0.0,0.0,0.0,78.76,1,0,0.03,0.1,-1.0,3.71,-3.85,-3.5,-90.88,55.12,-47.35,0.0,False,0.0,0.0,0.0,0.0
53469.0,53469.0,0.0,0.0,0.0,78.76,1,0,0.03,0.1,-1.0,3.71,-3.85,-3.5,-90.88,55.12,-47.35,0.0,False,0.0,0.0,0.0,0.0
53469.0,53469.0,0.0,0.0,0.0,78.76,1,0,0.03,0.1,-1.0,3.71,-3.85,-3.5,-90.88,55.12,-47.35,0.0,False,0.0,0.0,0.0,0.0
53489.0,53489.0,0.0,0.0,0.0,78.76,1,0,0.03,0.1,-1.0,3.85,-4.13,-3.43,-90.88,55.12,-47.35,0.0,False,0.0,0.0,0.0,0.0
53489.0,53489.0,0.0,0.0,0.0,78.76,1,0,0.03,0.1,-1.0,3.85,-4.13,-3.43,-90.88,55.12,-47.35,0.0,False,0.0,0.0,0.0,0.0
53489.0,53489.0,0.0,0.0,0.0,78.76,1,0,0.03,0.1,-1.0,3.85,-4.13,-3.43,-90.88,55.12,-47.35,0.0,False,0.0,0.0,0.0,0.0
53489.0,53489.0,0.0,0.0,0.0,78.76,1,0,0.03,0.1,-1.0,3.85,-4.13,-3.43,-90.88,55.12,-47.35,0.0,False,0.0,0.0,0.0,0.0
53489.0,53489.0,0.0,0.0,0.0,78.76,1,0,0.03,0.1,-1.0,3.85,-4.13,-3.43,-90.88,55.12,-47.35,0.0,False,0.0,0.0,0.0,0.0
53512.0,53512.0,0.0,0.0,0.0,78.76,1,0,0.03,0.1,-0.99,3.64,-4.06,-3.5,-90.88,55.12,-47.35,0.0,False,0.0,0.0,0.0,0.0
53512.0,53512.0,0.0,0.0,0.0,78.76,1,0,0.03,0.1,-0.99,3.64,-4.06,-3.5,-90.88,55.12,-47.35,0.0,False,0.0,0.0,0.0,0.0
53512.0,53512.0,0.0,0.0,0.0,78.76,1,0,0.03,0.1,-0.99,3.64,-4.06,-3.5,-90.88,55.12,-47.35,0.0,False,0.0,0.0,0.0,0.0
53512.0,53512.0,0.0,0.0,0.0,78.76,1,0,0.03,0.1,-0.99,3.64,-4.06,-3.5,-90.88,55.12,-47.35,0.0,False,0.0,0.0,0.0,0.0
53512.0,53512.0,0.0,0.0,0.0,78.76,1,0,0.03,0.1,-0.99,3.64,-4.06,-3.5,-90.88,55.12,-47.35,0.0,False,0.0,0.0,0.0,0.0
53534.0,53534.0,0.0,0.0,0.0,78.76,1,0,0.03,0.1,-1.0,3.78,-4.13,-3.36,-90.88,55.12,-47.35,0.0,False,0.0,0.0,0.0,0.0
53534.0,53534.0,0.0,0.0,0.0,78.76,1,0,0.03,0.1,-1.0,3.78,-4.13,-3.36,-90.88,55.12,-47.35,0.0,False,0.0,0.0,0.0,0.0
53534.0,53534.0,0.0,0.0,0.0,78.76,1,0,0.03,0.1,-1.0,3.78,-4.13,-3.36,-90.88,55.12,-47.35,0.0,False,0.0,0.0,0.0,0.0
53534.0,53534.0,0.0,0.0,0.0,78.76,1,0,0.03,0.1,-1.0,3.78,-4.13,-3.36,-90.88,55.12,-47.35,0.0,False,0.0,0.0,0.0,0.0
53554.0,53554.0,0.0,0.0,0.0,78.76,1,0,0.03,0.1,-1.0,3.78,-3.99,-3.57,-90.88,55.12,-47.35,0.0,False,0.0,0.0,0.0,0.0
53554.0,53554.0,0.0,0.0,0.0,78.76,1,0,0.03,0.1,-1.0,3.78,-3.99,-3.57,-90.88,55.12,-47.35,0.0,False,0.0,0.0,0.0,0.0
53554.0,53554.0,0.0,0.0,0.0,78.76,1,0,0.03,0.1,-1.0,3.78,-3.99,-3.57,-90.88,55.12,-47.35,0.0,False,0.0,0.0,0.0,0.0
53554.0,53554.0,0.0,0.0,0.0,78.76,1,0,0.03,0.1,-1.0,3.78,-3.99,-3.57,-90.88,55.12,-47.35,0.0,False,0.0,0.0,0.0,0.0
53574.0,53574.0,0.0,0.0,0.0,78.8,1,0,0.03,0.1,-1.0,3.64,-4.13,-3.36,-91.16,55.2,-47.35,0.0,False,0.0,0.0,0.0,0.0
53574.0,53574.0,0.0,0.0,0.0,78.8,1,0,0.03,0.1,-1.0,3.64,-4.13,-3.36,-91.16,55.2,-47.35,0.0,False,0.0,0.0,0.0,0.0
53574.0,53574.0,0.0,0.0,0.0,78.8,1,0,0.03,0.1,-1.0,3.64,-4.13,-3.36,-91.16,55.2,-47.35,0.0,False,0.0,0.0,0.0,0.0
53574.0,53574.0,0.0,0.0,0.0,78.8,1,0,0.03,0.1,-1.0,3.64,-4.13,-3.36,-91.16,55.2,-47.35,0.0,False,0.0,0.0,0.0,0.0
53574.0,53574.0,0.0,0.0,0.0,78.8,1,0,0.03,0.1,-1.0,3.64,-4.13,-3.36,-91.16,55.2,-47.35,0.0,False,0.0,0.0,0.0,0.0
53597.0,53597.0,0.0,0.0,0.0,78.8,1,0,0.03,0.1,-0.99,3.78,-3.71,-3.36,-91.16,55.2,-47.35,0.0,False,0.0,0.0,0.0,0.0
53597.0,53597.0,0.0,0.0,0.0,78.8,1,0,0.03,0.1,-0.99,3.78,-3.71,-3.36,-91.16,55.2,-47.35,0.0,False,0.0,0.0,0.0,0.0
53597.0,53597.0,0.0,0.0,0.0,78.8,1,0,0.03,0.1,-0.99,3.78,-3.71,-3.36,-91.16,55.2,-47.35,0.0,False,0.0,0.0,0.0,0.0
53597.0,53597.0,0.0,0.0,0.0,78.8,1,0,0.03,0.1,-0.99,3.78,-3.71,-3.36,-91.16,55.2,-47.35,0.0,False,0.0,0.0,0.0,0.0
53597.0,53597.0,0.0,0.0,0.0,78.8,1,0,0.03,0.1,-0.99,3.78,-3.71,-3.36,-91.16,55.2,-47.35,0.0,False,0.0,0.0,0.0,0.0
53620.0,53620.0,0.0,0.0,0.0,78.8,1,0,0.03,0.1,-1.0,3.78,-3.78,-3.57,-91.16,55.2,-47.35,0.0,False,0.0,0.0,0.0,0.0
53620.0,53620.0,0.0,0.0,0.0,78.8,1,0,0.03,0.1,-1.0,3.78,-3.78,-3.57,-91.16,55.2,-47.35,0.0,False,0.0,0.0,0.0,0.0
53620.0,53620.0,0.0,0.0,0.0,78.8,1,0,0.03,0.1,-1.0,3.78,-3.78,-3.57,-91.16,55.2,-47.35,0.0,False,0.0,0.0,0.0,0.0
53620.0,53620.0,0.0,0.0,0.0,78.8,1,0,0.03,0.1,-1.0,3.78,-3.78,-3.57,-91.16,55.2,-47.35,0.0,False,0.0,0.0,0.0,0.0
53620.0,53620.0,0.0,0.0,0.0,78.8,1,0,0.03,0.1,-1.0,3.78,-3.78,-3.57,-91.16,55.2,-47.35,0.0,False,0.0,0.0,0.0,0.0
53643.0,53643.0,0.0,0.0,0.0,78.8,1,0,0.03,0.1,-1.0,3.99,-3.99,-3.64,-91.16,55.2,-47.35,0.0,False,0.0,0.0,0.0,0.0
53643.0,53643.0,0.0,0.0,0.0,78.8,1,0,0.03,0.1,-1.0,3.99,-3.99,-3.64,-91.16,55.2,-47.35,0.0,False,0.0,0.0,0.0,0.0
53643.0,53643.0,0.0,0.0,0.0,78.8,1,0,0.03,0.1,-1.0,3.99,-3.99,-3.64,-91.16,55.2,-47.35,0.0,False,0.0,0.0,0.0,0.0
53643.0,53643.0,0.0,0.0,0.0,78.8,1,0,0.03,0.1,-1.0,3.99,-3.99,-3.64,-91.16,55.2,-47.35,0.0,False,0.0,0.0,0.0,0.0
53643.0,53643.0,0.0,0.0,0.0,78.8,1,0,0.03,0.1,-1.0,3.99,-3.99,-3.64,-91.16,55.2,-47.35,0.0,False,0.0,0.0,0.0,0.0
53665.0,53665.0,0.0,0.0,0.0,78.77,1,0,0.03,0.1,-1.0,3.85,-4.13,-3.57,-90.69,54.98,-47.09,0.0,False,0.0,0.0,0.0,0.0
53665.0,53665.0,0.0,0.0,0.0,78.77,1,0,0.03,0.1,-1.0,3.85,-4.13,-3.57,-90.69,54.98,-47.09,0.0,False,0.0,0.0,0.0,0.0
53665.0,53665.0,0.0,0.0,0.0,78.77,1,0,0.03,0.1,-1.0,3.85,-4.13,-3.57,-90.69,54.98,-47.09,0.0,False,0.0,0.0,0.0,0.0
53665.0,53665.0,0.0,0.0,0.0,78.77,1,0,0.03,0.1,-1.0,3.85,-4.13,-3.57,-90.69,54.98,-47.09,0.0,False,0.0,0.0,0.0,0.0
53685.0,53685.0,0.0,0.0,0.0,78.77,1,0,0.03,0.1,-1.0,3.85,-4.06,-3.43,-90.69,54.98,-47.09,0.0,False,0.0,0.0,0.0,0.0
53685.0,53685.0,0.0,0.0,0.0,78.77,1,0,0.03,0.1,-1.0,3.85,-4.06,-3.43,-90.69,54.98,-47.09,0.0,False,0.0,0.0,0.0,0.0
53685.0,53685.0,0.0,0.0,0.0,78.77,1,0,0.03,0.1,-1.0,3.85,-4.06,-3.43,-90.69,54.98,-47.09,0.0,False,0.0,0.0,0.0,0.0
53685.0,53685.0,0.0,0.0,0.0,78.77,1,0,0.03,0.1,-1.0,3.85,-4.06,-3.43,-90.69,54.98,-47.09,0.0,False,0.0,0.0,0.0,0.0
53705.0,53705.0,0.0,0.0,0.0,78.77,1,0,0.03,0.1,-1.0,3.85,-4.06,-3.5,-90.69,54.98,-47.09,0.0,False,0.0,0.0,0.0,0.0
53705.0,53705.0,0.0,0.0,0.0,78.77,1,0,0.03,0.1,-1.0,3.85,-4.06,-3.5,-90.69,54.98,-47.09,0.0,False,0.0,0.0,0.0,0.0
53705.0,53705.0,0.0,0.0,0.0,78.77,1,0,0.03,0.1,-1.0,3.85,-4.06,-3.5,-90.69,54.98,-47.09,0.0,False,0.0,0.0,0.0,0.0
53705.0,53705.0,0.0,0.0,0.0,78.77,1,0,0.03,0.1,-1.0,3.85,-4.06,-3.5,-90.69,54.98,-47.09,0.0,False,0.0,0.0,0.0,0.0
53705.0,53705.0,0.0,0.0,0.0,78.77,1,0,0.03,0.1,-1.0,3.85,-4.06,-3.5,-90.69,54.98,-47.09,0.0,False,0.0,0.0,0.0,0.0
53727.0,53727.0,0.0,0.0,0.0,78.77,1,0,0.03,0.1,-1.0,3.92,-3.99,-3.29,-90.69,54.98,-47.09,0.0,False,0.0,0.0,0.0,0.0
53727.0,53727.0,0.0,0.0,0.0,78.77,1,0,0.03,0.1,-1.0,3.92,-3.99,-3.29,-90.69,54.98,-47.09,0.0,False,0.0,0.0,0.0,0.0
53727.0,53727.0,0.0,0.0,0.0,78.77,1,0,0.03,0.1,-1.0,3.92,-3.99,-3.29,-90.69,54.98,-47.09,0.0,False,0.0,0.0,0.0,0.0
53727.0,53727.0,0.0,0.0,0.0,78.77,1,0,0.03,0.1,-1.0,3.92,-3.99,-3.29,-90.69,54.98,-47.09,0.0,False,0.0,0.0,0.0,0.0
53747.0,53747.0,0.0,0.0,0.0,78.77,1,0,0.03,0.1,-1.0,3.85,-3.99,-3.43,-90.69,54.98,-47.09,0.0,False,0.0,0.0,0.0,0.0
53747.0,53747.0,0.0,0.0,0.0,78.77,1,0,0.03,0.1,-1.0,3.85,-3.99,-3.43,-90.69,54.98,-47.09,0.0,False,0.0,0.0,0.0,0.0
53747.0,53747.0,0.0,0.0,0.0,78.77,1,0,0.03,0.1,-1.0,3.85,-3.99,-3.43,-90.69,54.98,-47.09,0.0,False,0.0,0.0,0.0,0.0
53747.0,53747.0,0.0,0.0,0.0,78.77,1,0,0.03,0.1,-1.0,3.85,-3.99,-3.43,-90.69,54.98,-47.09,0.0,False,0.0,0.0,0.0,0.0
53767.0,53767.0,0.0,0.0,0.0,79.04,1,0,0.02,0.1,-0.99,3.85,-3.92,-3.5,-91.11,54.66,-48.2,0.0,False,0.0,0.0,0.0,0.0
53767.0,53767.0,0.0,0.0,0.0,79.04,1,0,0.02,0.1,-0.99,3.85,-3.92,-3.5,-91.11,54.66,-48.2,0.0,False,0.0,0.0,0.0,0.0
53767.0,53767.0,0.0,0.0,0.0,79.04,1,0,0.02,0.1,-0.99,3.85,-3.92,-3.5,-91.11,54.66,-48.2,0.0,False,0.0,0.0,0.0,0.0
53767.0,53767.0,0.0,0.0,0.0,79.04,1,0,0.02,0.1,-0.99,3.85,-3.92,-3.5,-91.11,54.66,-48.2,0.0,False,0.0,0.0,0.0,0.0
53767.0,53767.0,0.0,0.0,0.0,79.04,1,0,0.02,0.1,-0.99,3.85,-3.92,-3.5,-91.11,54.66,-48.2,0.0,False,0.0,0.0,0.0,0.0
53789.0,53789.0,0.0,0.0,0.0,79.04,1,0,0.03,0.1,-0.99,3.78,-4.2,-3.57,-91.11,54.66,-48.2,0.0,False,0.0,0.0,0.0,0.0
53789.0,53789.0,0.0,0.0,0.0,79.04,1,0,0.03,0.1,-0.99,3.78,-4.2,-3.57,-91.11,54.66,-48.2,0.0,False,0.0,0.0,0.0,0.0
53789.0,53789.0,0.0,0.0,0.0,79.04,1,0,0.03,0.1,-0.99,3.78,-4.2,-3.57,-91.11,54.66,-48.2,0.0,False,0.0,0.0,0.0,0.0
53789.0,53789.0,0.0,0.0,0.0,79.04,1,0,0.03,0.1,-0.99,3.78,-4.2,-3.57,-91.11,54.66,-48.2,0.0,False,0.0,0.0,0.0,0.0
53809.0,53809.0,0.0,0.0,0.0,79.04,1,0,0.02,0.1,-0.99,3.85,-4.13,-3.43,-91.11,54.66,-48.2,0.0,False,0.0,0.0,0.0,0.0
53809.0,53809.0,0.0,0.0,0.0,79.04,1,0,0.02,0.1,-0.99,3.85,-4.13,-3.43,-91.11,54.66,-48.2,0.0,False,0.0,0.0,0.0,0.0
53809.0,53809.0,0.0,0.0,0.0,79.04,1,0,0.02,0.1,-0.99,3.85,-4.13,-3.43,-91.11,54.66,-48.2,0.0,False,0.0,0.0,0.0,0.0
53809.0,53809.0,0.0,0.0,0.0,79.04,1,0,0.02,0.1,-0.99,3.85,-4.13,-3.43,-91.11,54.66,-48.2,0.0,False,0.0,0.0,0.0,0.0
53829.0,53829.0,0.0,0.0,0.0,79.04,1,0,0.03,0.1,-1.0,3.71,-3.85,-3.64,-91.11,54.66,-48.2,0.0,False,0.0,0.0,0.0,0.0
53829.0,53829.0,0.0,0.0,0.0,79.04,1,0,0.03,0.1,-1.0,3.71,-3.85,-3.64,-91.11,54.66,-48.2,0.0,False,0.0,0.0,0.0,0.0
53829.0,53829.0,0.0,0.0,0.0,79.04,1,0,0.03,0.1,-1.0,3.71,-3.85,-3.64,-91.11,54.66,-48.2,0.0,False,0.0,0.0,0.0,0.0
53829.0,53829.0,0.0,0.0,0.0,79.04,1,0,0.03,0.1,-1.0,3.71,-3.85,-3.64,-91.11,54.66,-48.2,0.0,False,0.0,0.0,0.0,0.0
53829.0,53829.0,0.0,0.0,0.0,79.04,1,0,0.03,0.1,-1.0,3.71,-3.85,-3.64,-91.11,54.66,-48.2,0.0,False,0.0,0.0,0.0,0.0
53852.0,53852.0,0.0,0.0,0.0,79.04,1,0,0.03,0.1,-0.99,3.71,-3.99,-3.43,-90.5,54.81,-47.25,0.0,False,0.0,0.0,0.0,0.0
53852.0,53852.0,0.0,0.0,0.0,79.04,1,0,0.03,0.1,-0.99,3.71,-3.99,-3.43,-90.5,54.81,-47.25,0.0,False,0.0,0.0,0.0,0.0
53852.0,53852.0,0.0,0.0,0.0,79.04,1,0,0.03,0.1,-0.99,3.71,-3.99,-3.43,-90.5,54.81,-47.25,0.0,False,0.0,0.0,0.0,0.0
53852.0,53852.0,0.0,0.0,0.0,79.04,1,0,0.03,0.1,-0.99,3.71,-3.99,-3.43,-90.5,54.81,-47.25,0.0,False,0.0,0.0,0.0,0.0
53872.0,53872.0,0.0,0.0,0.0,78.8,1,0,0.02,0.1,-1.0,3.85,-3.92,-3.57,-90.5,54.81,-47.25,0.0,False,0.0,0.0,0.0,0.0
53872.0,53872.0,0.0,0.0,0.0,78.8,1,0,0.02,0.1,-1.0,3.85,-3.92,-3.57,-90.5,54.81,-47.25,0.0,False,0.0,0.0,0.0,0.0
53872.0,53872.0,0.0,0.0,0.0,78.8,1,0,0.02,0.1,-1.0,3.85,-3.92,-3.57,-90.5,54.81,-47.25,0.0,False,0.0,0.0,0.0,0.0
53872.0,53872.0,0.0,0.0,0.0,78.8,1,0,0.02,0.1,-1.0,3.85,-3.92,-3.57,-90.5,54.81,-47.25,0.0,False,0.0,0.0,0.0,0.0
53872.0,53872.0,0.0,0.0,0.0,78.8,1,0,0.02,0.1,-1.0,3.85,-3.92,-3.57,-90.5,54.81,-47.25,0.0,False,0.0,0.0,0.0,0.0
53894.0,53894.0,0.0,0.0,0.0,78.8,1,0,0.03,0.1,-1.0,3.85,-3.99,-3.36,-90.5,54.81,-47.25,0.0,False,0.0,0.0,0.0,0.0
53894.0,53894.0,0.0,0.0,0.0,78.8,1,0,0.03,0.1,-1.0,3.85,-3.99,-3.36,-90.5,54.81,-47.25,0.0,False,0.0,0.0,0.0,0.0
53894.0,53894.0,0.0,0.0,0.0,78.8,1,0,0.03,0.1,-1.0,3.85,-3.99,-3.36,-90.5,54.81,-47.25,0.0,False,0.0,0.0,0.0,0.0
53894.0,53894.0,0.0,0.0,0.0,78.8,1,0,0.03,0.1,-1.0,3.85,-3.99,-3.36,-90.5,54.81,-47.25,0.0,False,0.0,0.0,0.0,0.0
53914.0,53914.0,0.0,0.0,0.0,78.8,1,0,0.03,0.1,-1.0,3.71,-4.06,-3.57,-90.5,54.81,-47.25,0.0,False,0.0,0.0,0.0,0.0
53914.0,53914.0,0.0,0.0,0.0,78.8,1,0,0.03,0.1,-1.0,3.71,-4.06,-3.57,-90.5,54.81,-47.25,0.0,False,0.0,0.0,0.0,0.0
53914.0,53914.0,0.0,0.0,0.0,78.8,1,0,0.03,0.1,-1.0,3.71,-4.06,-3.57,-90.5,54.81,-47.25,0.0,False,0.0,0.0,0.0,0.0
53914.0,53914.0,0.0,0.0,0.0,78.8,1,0,0.03,0.1,-1.0,3.71,-4.06,-3.57,-90.5,54.81,-47.25,0.0,False,0.0,0.0,0.0,0.0
53934.0,53934.0,0.0,0.0,0.0,78.8,1,0,0.03,0.1,-1.0,3.78,-4.06,-3.57,-90.5,54.81,-47.25,0.0,False,0.0,0.0,0.0,0.0
53934.0,53934.0,0.0,0.0,0.0,78.8,1,0,0.03,0.1,-1.0,3.78,-4.06,-3.57,-90.5,54.81,-47.25,0.0,False,0.0,0.0,0.0,0.0
53934.0,53934.0,0.0,0.0,0.0,78.8,1,0,0.03,0.1,-1.0,3.78,-4.06,-3.57,-90.5,54.81,-47.25,0.0,False,0.0,0.0,0.0,0.0
53934.0,53934.0,0.0,0.0,0.0,78.8,1,0,0.03,0.1,-1.0,3.78,-4.06,-3.57,-90.5,54.81,-47.25,0.0,False,0.0,0.0,0.0,0.0
53954.0,53954.0,0.0,0.0,0.0,78.8,1,0,0.03,0.1,-1.0,3.64,-4.13,-3.5,-90.92,54.06,-46.83,0.0,False,0.0,0.0,0.0,0.0
53954.0,53954.0,0.0,0.0,0.0,78.8,1,0,0.03,0.1,-1.0,3.64,-4.13,-3.5,-90.92,54.06,-46.83,0.0,False,0.0,0.0,0.0,0.0
53954.0,53954.0,0.0,0.0,0.0,78.8,1,0,0.03,0.1,-1.0,3.64,-4.13,-3.5,-90.92,54.06,-46.83,0.0,False,0.0,0.0,0.0,0.0
53954.0,53954.0,0.0,0.0,0.0,78.8,1,0,0.03,0.1,-1.0,3.64,-4.13,-3.5,-90.92,54.06,-46.83,0.0,False,0.0,0.0,0.0,0.0
53954.0,53954.0,0.0,0.0,0.0,78.8,1,0,0.03,0.1,-1.0,3.64,-4.13,-3.5,-90.92,54.06,-46.83,0.0,False,0.0,0.0,0.0,0.0
53976.0,53976.0,0.0,0.0,0.0,79.26,1,0,0.03,0.1,-1.0,3.78,-3.92,-3.5,-90.92,54.06,-46.83,0.0,False,0.0,0.0,0.0,0.0
53976.0,53976.0,0.0,0.0,0.0,79.26,1,0,0.03,0.1,-1.0,3.78,-3.92,-3.5,-90.92,54.06,-46.83,0.0,False,0.0,0.0,0.0,0.0
53976.0,53976.0,0.0,0.0,0.0,79.26,1,0,0.03,0.1,-1.0,3.78,-3.92,-3.5,-90.92,54.06,-46.83,0.0,False,0.0,0.0,0.0,0.0
53976.0,53976.0,0.0,0.0,0.0,79.26,1,0,0.03,0.1,-1.0,3.78,-3.92,-3.5,-90.92,54.06,-46.83,0.0,False,0.0,0.0,0.0,0.0
53996.0,53996.0,0.0,0.0,0.0,79.26,1,0,0.03,0.1,-1.0,3.85,-3.99,-3.57,-90.92,54.06,-46.83,0.0,False,0.0,0.0,0.0,0.0
53996.0,53996.0,0.0,0.0,0.0,79.26,1,0,0.03,0.1,-1.0,3.85,-3.99,-3.57,-90.92,54.06,-46.83,0.0,False,0.0,0.0,0.0,0.0
53996.0,53996.0,0.0,0.0,0.0,79.26,1,0,0.03,0.1,-1.0,3.85,-3.99,-3.57,-90.92,54.06,-46.83,0.0,False,0.0,0.0,0.0,0.0
53996.0,53996.0,0.0,0.0,0.0,79.26,1,0,0.03,0.1,-1.0,3.85,-3.99,-3.57,-90.92,54.06,-46.83,0.0,False,0.0,0.0,0.0,0.0
54016.0,54016.0,0.0,0.0,0.0,79.26,1,0,0.03,0.1,-0.99,3.71,-3.99,-3.57,-90.92,54.06,-46.83,0.0,False,0.0,0.0,0.0,0.0
54016.0,54016.0,0.0,0.0,0.0,79.26,1,0,0.03,0.1,-0.99,3.71,-3.99,-3.57,-90.92,54.06,-46.83,0.0,False,0.0,0.0,0.0,0.0
54016.0,54016.0,0.0,0.0,0.0,79.26,1,0,0.03,0.1,-0.99,3.71,-3.99,-3.57,-90.92,54.06,-46.83,0.0,False,0.0,0.0,0.0,0.0
54016.0,54016.0,0.0,0.0,0.0,79.26,1,0,0.03,0.1,-0.99,3.71,-3.99,-3.57,-90.92,54.06,-46.83,0.0,False,0.0,0.0,0.0,0.0
54036.0,54036.0,0.0,0.0,0.0,79.26,1,0,0.03,0.11,-0.99,3.78,-4.06,-3.43,-90.92,54.06,-46.83,0.0,False,0.0,0.0,0.0,0.0
54036.0,54036.0,0.0,0.0,0.0,79.26,1,0,0.03,0.11,-0.99,3.78,-4.06,-3.43,-90.92,54.06,-46.83,0.0,False,0.0,0.0,0.0,0.0
54036.0,54036.0,0.0,0.0,0.0,79.26,1,0,0.03,0.11,-0.99,3.78,-4.06,-3.43,-90.92,54.06,-46.83,0.0,False,0.0,0.0,0.0,0.0
54036.0,54036.0,0.0,0.0,0.0,79.26,1,0,0.03,0.11,-0.99,3.78,-4.06,-3.43,-90.92,54.06,-46.83,0.0,False,0.0,0.0,0.0,0.0
54056.0,54056.0,0.0,0.0,0.0,78.92,1,0,0.03,0.1,-1.0,3.71,-3.92,-3.5,-90.03,54.27,-47.59,0.0,False,0.0,0.0,0.0,0.0
54056.0,54056.0,0.0,0.0,0.0,78.92,1,0,0.03,0.1,-1.0,3.71,-3.92,-3.5,-90.03,54.27,-47.59,0.0,False,0.0,0.0,0.0,0.0
54056.0,54056.0,0.0,0.0,0.0,78.92,1,0,0.03,0.1,-1.0,3.71,-3.92,-3.5,-90.03,54.27,-47.59,0.0,False,0.0,0.0,0.0,0.0
54056.0,54056.0,0.0,0.0,0.0,78.92,1,0,0.03,0.1,-1.0,3.71,-3.92,-3.5,-90.03,54.27,-47.59,0.0,False,0.0,0.0,0.0,0.0
54056.0,54056.0,0.0,0.0,0.0,78.92,1,0,0.03,0.1,-1.0,3.71,-3.92,-3.5,-90.03,54.27,-47.59,0.0,False,0.0,0.0,0.0,0.0
54078.0,54078.0,0.0,0.0,0.0,78.92,1,0,0.03,0.1,-0.99,3.71,-4.2,-3.5,-90.03,54.27,-47.59,0.0,False,0.0,0.0,0.0,0.0
54078.0,54078.0,0.0,0.0,0.0,78.92,1,0,0.03,0.1,-0.99,3.71,-4.2,-3.5,-90.03,54.27,-47.59,0.0,False,0.0,0.0,0.0,0.0
54078.0,54078.0,0.0,0.0,0.0,78.92,1,0,0.03,0.1,-0.99,3.71,-4.2,-3.5,-90.03,54.27,-47.59,0.0,False,0.0,0.0,0.0,0.0
54078.0,54078.0,0.0,0.0,0.0,78.92,1,0,0.03,0.1,-0.99,3.71,-4.2,-3.5,-90.03,54.27,-47.59,0.0,False,0.0,0.0,0.0,0.0
54098.0,54098.0,0.0,0.0,0.0,78.92,1,0,0.03,0.1,-0.99,3.92,-4.2,-3.36,-90.03,54.27,-47.59,0.0,False,0.0,0.0,0.0,0.0
54098.0,54098.0,0.0,0.0,0.0,78.92,1,0,0.03,0.1,-0.99,3.92,-4.2,-3.36,-90.03,54.27,-47.59,0.0,False,0.0,0.0,0.0,0.0
54098.0,54098.0,0.0,0.0,0.0,78.92,1,0,0.03,0.1,-0.99,3.92,-4.2,-3.36,-90.03,54.27,-47.59,0.0,False,0.0,0.0,0.0,0.0
54098.0,54098.0,0.0,0.0,0.0,78.92,1,0,0.03,0.1,-0.99,3.92,-4.2,-3.36,-90.03,54.27,-47.59,0.0,False,0.0,0.0,0.0,0.0
54118.0,54118.0,0.0,0.0,0.0,78.92,1,0,0.03,0.1,-0.99,3.92,-4.06,-3.43,-90.03,54.27,-47.59,0.0,False,0.0,0.0,0.0,0.0
54118.0,54118.0,0.0,0.0,0.0,78.92,1,0,0.03,0.1,-0.99,3.92,-4.06,-3.43,-90.03,54.27,-47.59,0.0,False,0.0,0.0,0.0,0.0
54118.0,54118.0,0.0,0.0,0.0,78.92,1,0,0.03,0.1,-0.99,3.92,-4.06,-3.43,-90.03,54.27,-47.59,0.0,False,0.0,0.0,0.0,0.0
54118.0,54118.0,0.0,0.0,0.0,78.92,1,0,0.03,0.1,-0.99,3.92,-4.06,-3.43,-90.03,54.27,-47.59,0.0,False,0.0,0.0,0.0,0.0
54138.0,54138.0,0.0,0.0,0.0,78.92,1,0,0.03,0.1,-1.0,3.92,-4.13,-3.29,-90.03,54.27,-47.59,0.0,False,0.0,0.0,0.0,0.0
54138.0,54138.0,0.0,0.0,0.0,78.92,1,0,0.03,0.1,-1.0,3.92,-4.13,-3.29,-90.03,54.27,-47.59,0.0,False,0.0,0.0,0.0,0.0
54138.0,54138.0,0.0,0.0,0.0,78.92,1,0,0.03,0.1,-1.0,3.92,-4.13,-3.29,-90.03,54.27,-47.59,0.0,False,0.0,0.0,0.0,0.0
54138.0,54138.0,0.0,0.0,0.0,78.92,1,0,0.03,0.1,-1.0,3.92,-4.13,-3.29,-90.03,54.27,-47.59,0.0,False,0.0,0.0,0.0,0.0
54138.0,54138.0,0.0,0.0,0.0,78.92,1,0,0.03,0.1,-1.0,3.92,-4.13,-3.29,-90.03,54.27,-47.59,0.0,False,0.0,0.0,0.0,0.0
54161.0,54161.0,0.0,0.0,0.0,78.84,1,0,0.03,0.1,-1.0,3.71,-4.2,-3.5,-90.34,54.62,-47.85,0.0,False,0.0,0.0,0.0,0.0
54161.0,54161.0,0.0,0.0,0.0,78.84,1,0,0.03,0.1,-1.0,3.71,-4.2,-3.5,-90.34,54.62,-47.85,0.0,False,0.0,0.0,0.0,0.0
54161.0,54161.0,0.0,0.0,0.0,78.84,1,0,0.03,0.1,-1.0,3.71,-4.2,-3.5,-90.34,54.62,-47.85,0.0,False,0.0,0.0,0.0,0.0
54161.0,54161.0,0.0,0.0,0.0,78.84,1,0,0.03,0.1,-1.0,3.71,-4.2,-3.5,-90.34,54.62,-47.85,0.0,False,0.0,0.0,0.0,0.0
54181.0,54181.0,0.0,0.0,0.0,78.84,1,0,0.03,0.1,-1.0,3.64,-3.78,-3.36,-90.34,54.62,-47.85,0.0,False,0.0,0.0,0.0,0.0
54181.0,54181.0,0.0,0.0,0.0,78.84,1,0,0.03,0.1,-1.0,3.64,-3.78,-3.36,-90.34,54.62,-47.85,0.0,False,0.0,0.0,0.0,0.0
54181.0,54181.0,0.0,0.0,0.0,78.84,1,0,0.03,0.1,-1.0,3.64,-3.78,-3.36,-90.34,54.62,-47.85,0.0,False,0.0,0.0,0.0,0.0
54181.0,54181.0,0.0,0.0,0.0,78.84,1,0,0.03,0.1,-1.0,3.64,-3.78,-3.36,-90.34,54.62,-47.85,0.0,False,0.0,0.0,0.0,0.0
54181.0,54181.0,0.0,0.0,0.0,78.84,1,0,0.03,0.1,-1.0,3.64,-3.78,-3.36,-90.34,54.62,-47.85,0.0,False,0.0,0.0,0.0,0.0
54203.0,54203.0,0.0,0.0,0.0,78.84,1,0,0.03,0.1,-0.99,3.85,-4.13,-3.43,-90.34,54.62,-47.85,0.0,False,0.0,0.0,0.0,0.0
54203.0,54203.0,0.0,0.0,0.0,78.84,1,0,0.03,0.1,-0.99,3.85,-4.13,-3.43,-90.34,54.62,-47.85,0.0,False,0.0,0.0,0.0,0.0
54203.0,54203.0,0.0,0.0,0.0,78.84,1,0,0.03,0.1,-0.99,3.85,-4.13,-3.43,-90.34,54.62,-47.85,0.0,False,0.0,0.0,0.0,0.0
54203.0,54203.0,0.0,0.0,0.0,78.84,1,0,0.03,0.1,-0.99,3.85,-4.13,-3.43,-90.34,54.62,-47.85,0.0,False,0.0,0.0,0.0,0.0
54223.0,54223.0,0.0,0.0,0.0,78.84,1,0,0.03,0.1,-1.0,3.78,-3.99,-3.43,-90.34,54.62,-47.85,0.0,False,0.0,0.0,0.0,0.0
54223.0,54223.0,0.0,0.0,0.0,78.84,1,0,0.03,0.1,-1.0,3.78,-3.99,-3.43,-90.34,54.62,-47.85,0.0,False,0.0,0.0,0.0,0.0
54223.0,54223.0,0.0,0.0,0.0,78.84,1,0,0.03,0.1,-1.0,3.78,-3.99,-3.43,-90.34,54.62,-47.85,0.0,False,0.0,0.0,0.0,0.0
54223.0,54223.0,0.0,0.0,0.0,78.84,1,0,0.03,0.1,-1.0,3.78,-3.99,-3.43,-90.34,54.62,-47.85,0.0,False,0.0,0.0,0.0,0.0
54243.0,54243.0,0.0,0.0,0.0,78.84,1,0,0.03,0.1,-1.0,3.78,-3.92,-3.43,-90.34,54.62,-47.85,0.0,False,0.0,0.0,0.0,0.0
54243.0,54243.0,0.0,0.0,0.0,78.84,1,0,0.03,0.1,-1.0,3.78,-3.92,-3.43,-90.34,54.62,-47.85,0.0,False,0.0,0.0,0.0,0.0
54243.0,54243.0,0.0,0.0,0.0,78.84,1,0,0.03,0.1,-1.0,3.78,-3.92,-3.43,-90.34,54.62,-47.85,0.0,False,0.0,0.0,0.0,0.0
54243.0,54243.0,0.0,0.0,0.0,78.84,1,0,0.03,0.1,-1.0,3.78,-3.92,-3.43,-90.34,54.62,-47.85,0.0,False,0.0,0.0,0.0,0.0
54243.0,54243.0,0.0,0.0,0.0,78.84,1,0,0.03,0.1,-1.0,3.78,-3.92,-3.43,-90.34,54.62,-47.85,0.0,False,0.0,0.0,0.0,0.0
54265.0,54265.0,0.0,0.0,0.0,78.88,1,0,0.03,0.1,-1.0,3.71,-4.06,-3.36,-90.63,54.71,-46.57,0.0,False,0.0,0.0,0.0,0.0
54265.0,54265.0,0.0,0.0,0.0,78.88,1,0,0.03,0.1,-1.0,3.71,-4.06,-3.36,-90.63,54.71,-46.57,0.0,False,0.0,0.0,0.0,0.0
54265.0,54265.0,0.0,0.0,0.0,78.88,1,0,0.03,0.1,-1.0,3.71,-4.06,-3.36,-90.63,54.71,-46.57,0.0,False,0.0,0.0,0.0,0.0
54265.0,54265.0,0.0,0.0,0.0,78.88,1,0,0.03,0.1,-1.0,3.71,-4.06,-3.36,-90.63,54.71,-46.57,0.0,False,0.0,0.0,0.0,0.0
54285.0,54285.0,0.0,0.0,0.0,78.88,1,0,0.03,0.1,-1.0,3.71,-4.06,-3.57,-90.63,54.71,-46.57,0.0,False,0.0,0.0,0.0,0.0
54285.0,54285.0,0.0,0.0,0.0,78.88,1,0,0.03,0.1,-1.0,3.71,-4.06,-3.57,-90.63,54.71,-46.57,0.0,False,0.0,0.0,0.0,0.0
54285.0,54285.0,0.0,0.0,0.0,78.88,1,0,0.03,0.1,-1.0,3.71,-4.06,-3.57,-90.63,54.71,-46.57,0.0,False,0.0,0.0,0.0,0.0
54285.0,54285.0,0.0,0.0,0.0,78.88,1,0,0.03,0.1,-1.0,3.71,-4.06,-3.57,-90.63,54.71,-46.57,0.0,False,0.0,0.0,0.0,0.0
54305.0,54305.0,0.0,0.0,0.0,78.88,1,0,0.03,0.1,-1.0,3.64,-3.78,-3.5,-90.63,54.71,-46.57,0.0,False,0.0,0.0,0.0,0.0
54305.0,54305.0,0.0,0.0,0.0,78.88,1,0,0.03,0.1,-1.0,3.64,-3.78,-3.5,-90.63,54.71,-46.57,0.0,False,0.0,0.0,0.0,0.0
54305.0,54305.0,0.0,0.0,0.0,78.88,1,0,0.03,0.1,-1.0,3.64,-3.78,-3.5,-90.63,54.71,-46.57,0.0,False,0.0,0.0,0.0,0.0
54305.0,54305.0,0.0,0.0,0.0,78.88,1,0,0.03,0.1,-1.0,3.64,-3.78,-3.5,-90.63,54.71,-46.57,0.0,False,0.0,0.0,0.0,0.0
54325.0,54325.0,0.0,0.0,0.0,78.88,1,0,0.03,0.1,-1.0,3.71,-4.06,-3.36,-90.63,54.71,-46.57,0.0,False,0.0,0.0,0.0,0.0
54325.0,54325.0,0.0,0.0,0.0,78.88,1,0,0.03,0.1,-1.0,3.71,-4.06,-3.36,-90.63,54.71,-46.57,0.0,False,0.0,0.0,0.0,0.0
54325.0,54325.0,0.0,0.0,0.0,78.88,1,0,0.03,0.1,-1.0,3.71,-4.06,-3.36,-90.63,54.71,-46.57,0.0,False,0.0,0.0,0.0,0.0
54325.0,54325.0,0.0,0.0,0.0,78.88,1,0,0.03,0.1,-1.0,3.71,-4.06,-3.36,-90.63,54.71,-46.57,0.0,False,0.0,0.0,0.0,0.0
54345.0,54345.0,0.0,0.0,0.0,78.88,1,0,0.03,0.1,-1.0,3.71,-3.99,-3.5,-90.63,54.71,-46.57,0.0,False,0.0,0.0,0.0,0.0
54345.0,54345.0,0.0,0.0,0.0,78.88,1,0,0.03,0.1,-1.0,3.71,-3.99,-3.5,-90.63,54.71,-46.57,0.0,False,0.0,0.0,0.0,0.0
54345.0,54345.0,0.0,0.0,0.0,78.88,1,0,0.03,0.1,-1.0,3.71,-3.99,-3.5,-90.63,54.71,-46.57,0.0,False,0.0,0.0,0.0,0.0
54345.0,54345.0,0.0,0.0,0.0,78.88,1,0,0.03,0.1,-1.0,3.71,-3.99,-3.5,-90.63,54.71,-46.57,0.0,False,0.0,0.0,0.0,0.0
54365.0,54365.0,0.0,0.0,0.0,79.02,1,0,0.03,0.1,-0.99,3.78,-4.34,-3.5,-90.81,54.52,-47.81,0.0,False,0.0,0.0,0.0,0.0
54365.0,54365.0,0.0,0.0,0.0,79.02,1,0,0.03,0.1,-0.99,3.78,-4.34,-3.5,-90.81,54.52,-47.81,0.0,False,0.0,0.0,0.0,0.0
54365.0,54365.0,0.0,0.0,0.0,79.02,1,0,0.03,0.1,-0.99,3.78,-4.34,-3.5,-90.81,54.52,-47.81,0.0,False,0.0,0.0,0.0,0.0
54365.0,54365.0,0.0,0.0,0.0,79.02,1,0,0.03,0.1,-0.99,3.78,-4.34,-3.5,-90.81,54.52,-47.81,0.0,False,0.0,0.0,0.0,0.0
54365.0,54365.0,0.0,0.0,0.0,79.02,1,0,0.03,0.1,-0.99,3.78,-4.34,-3.5,-90.81,54.52,-47.81,0.0,False,0.0,0.0,0.0,0.0
54388.0,54388.0,0.0,0.0,0.0,79.02,1,0,0.03,0.1,-1.0,3.78,-4.2,-3.57,-90.81,54.52,-47.81,0.0,False,0.0,0.0,0.0,0.0
54388.0,54388.0,0.0,0.0,0.0,79.02,1,0,0.03,0.1,-1.0,3.78,-4.2,-3.57,-90.81,54.52,-47.81,0.0,False,0.0,0.0,0.0,0.0
54388.0,54388.0,0.0,0.0,0.0,79.02,1,0,0.03,0.1,-1.0,3.78,-4.2,-3.57,-90.81,54.52,-47.81,0.0,False,0.0,0.0,0.0,0.0
54388.0,54388.0,0.0,0.0,0.0,79.02,1,0,0.03,0.1,-1.0,3.78,-4.2,-3.57,-90.81,54.52,-47.81,0.0,False,0.0,0.0,0.0,0.0
54388.0,54388.0,0.0,0.0,0.0,79.02,1,0,0.03,0.1,-1.0,3.78,-4.2,-3.57,-90.81,54.52,-47.81,0.0,False,0.0,0.0,0.0,0.0
54411.0,54411.0,0.0,0.0,0.0,79.02,1,0,0.03,0.1,-1.0,3.78,-3.78,-3.57,-90.81,54.52,-47.81,0.0,False,0.0,0.0,0.0,0.0
54411.0,54411.0,0.0,0.0,0.0,79.02,1,0,0.03,0.1,-1.0,3.78,-3.78,-3.57,-90.81,54.52,-47.81,0.0,False,0.0,0.0,0.0,0.0
54411.0,54411.0,0.0,0.0,0.0,79.02,1,0,0.03,0.1,-1.0,3.78,-3.78,-3.57,-90.81,54.52,-47.81,0.0,False,0.0,0.0,0.0,0.0
54411.0,54411.0,0.0,0.0,0.0,79.02,1,0,0.03,0.1,-1.0,3.78,-3.78,-3.57,-90.81,54.52,-47.81,0.0,False,0.0,0.0,0.0,0.0
54431.0,54431.0,0.0,0.0,0.0,79.02,1,0,0.03,0.1,-0.99,3.64,-4.41,-3.29,-90.81,54.52,-47.81,0.0,False,0.0,0.0,0.0,0.0
54431.0,54431.0,0.0,0.0,0.0,79.02,1,0,0.03,0.1,-0.99,3.64,-4.41,-3.29,-90.81,54.52,-47.81,0.0,False,0.0,0.0,0.0,0.0
54431.0,54431.0,0.0,0.0,0.0,79.02,1,0,0.03,0.1,-0.99,3.64,-4.41,-3.29,-90.81,54.52,-47.81,0.0,False,0.0,0.0,0.0,0.0
54431.0,54431.0,0.0,0.0,0.0,79.02,1,0,0.03,0.1,-0.99,3.64,-4.41,-3.29,-90.81,54.52,-47.81,0.0,False,0.0,0.0,0.0,0.0
54431.0,54431.0,0.0,0.0,0.0,79.02,1,0,0.03,0.1,-0.99,3.64,-4.41,-3.29,-90.81,54.52,-47.81,0.0,False,0.0,0.0,0.0,0.0
54454.0,54454.0,0.0,0.0,0.0,78.81,1,0,0.03,0.1,-1.0,3.85,-3.99,-3.57,-90.38,54.72,-47.73,0.0,False,0.0,0.0,0.0,0.0
54454.0,54454.0,0.0,0.0,0.0,78.81,1,0,0.03,0.1,-1.0,3.85,-3.99,-3.57,-90.38,54.72,-47.73,0.0,False,0.0,0.0,0.0,0.0
54454.0,54454.0,0.0,0.0,0.0,78.81,1,0,0.03,0.1,-1.0,3.85,-3.99,-3.57,-90.38,54.72,-47.73,0.0,False,0.0,0.0,0.0,0.0
54454.0,54454.0,0.0,0.0,0.0,78.81,1,0,0.03,0.1,-1.0,3.85,-3.99,-3.57,-90.38,54.72,-47.73,0.0,False,0.0,0.0,0.0,0.0
54454.0,54454.0,0.0,0.0,0.0,78.81,1,0,0.03,0.1,-1.0,3.85,-3.99,-3.57,-90.38,54.72,-47.73,0.0,False,0.0,0.0,0.0,0.0
54477.0,54477.0,0.0,0.0,0.0,78.81,1,0,0.03,0.1,-1.0,3.78,-4.13,-3.43,-90.38,54.72,-47.73,0.0,False,0.0,0.0,0.0,0.0
54477.0,54477.0,0.0,0.0,0.0,78.81,1,0,0.03,0.1,-1.0,3.78,-4.13,-3.43,-90.38,54.72,-47.73,0.0,False,0.0,0.0,0.0,0.0
54477.0,54477.0,0.0,0.0,0.0,78.81,1,0,0.03,0.1,-1.0,3.78,-4.13,-3.43,-90.38,54.72,-47.73,0.0,False,0.0,0.0,0.0,0.0
54477.0,54477.0,0.0,0.0,0.0,78.81,1,0,0.03,0.1,-1.0,3.78,-4.13,-3.43,-90.38,54.72,-47.73,0.0,False,0.0,0.0,0.0,0.0
54497.0,54497.0,0.0,0.0,0.0,78.81,1,0,0.03,0.1,-1.0,3.64,-4.06,-3.5,-90.38,54.72,-47.73,0.0,False,0.0,0.0,0.0,0.0
54497.0,54497.0,0.0,0.0,0.0,78.81,1,0,0.03,0.1,-1.0,3.64,-4.06,-3.5,-90.38,54.72,-47.73,0.0,False,0.0,0.0,0.0,0.0
54497.0,54497.0,0.0,0.0,0.0,78.81,1,0,0.03,0.1,-1.0,3.64,-4.06,-3.5,-90.38,54.72,-47.73,0.0,False,0.0,0.0,0.0,0.0
54497.0,54497.0,0.0,0.0,0.0,78.81,1,0,0.03,0.1,-1.0,3.64,-4.06,-3.5,-90.38,54.72,-47.73,0.0,False,0.0,0.0,0.0,0.0
54497.0,54497.0,0.0,0.0,0.0,78.81,1,0,0.03,0.1,-1.0,3.64,-4.06,-3.5,-90.38,54.72,-47.73,0.0,False,0.0,0.0,0.0,0.0
54520.0,54520.0,0.0,0.0,0.0,78.81,1,0,0.03,0.1,-0.99,3.71,-4.13,-3.57,-90.38,54.72,-47.73,0.0,False,0.0,0.0,0.0,0.0
54520.0,54520.0,0.0,0.0,0.0,78.81,1,0,0.03,0.1,-0.99,3.71,-4.13,-3.57,-90.38,54.72,-47.73,0.0,False,0.0,0.0,0.0,0.0
54520.0,54520.0,0.0,0.0,0.0,78.81,1,0,0.03,0.1,-0.99,3.71,-4.13,-3.57,-90.38,54.72,-47.73,0.0,False,0.0,0.0,0.0,0.0
54520.0,54520.0,0.0,0.0,0.0,78.81,1,0,0.03,0.1,-0.99,3.71,-4.13,-3.57,-90.38,54.72,-47.73,0.0,False,0.0,0.0,0.0,0.0
54520.0,54520.0,0.0,0.0,0.0,78.81,1,0,0.03,0.1,-0.99,3.71,-4.13,-3.57,-90.38,54.72,-47.73,0.0,False,0.0,0.0,0.0,0.0
54542.0,54542.0,0.0,0.0,0.0,78.81,1,0,0.03,0.1,-1.0,3.64,-3.92,-3.57,-90.38,54.72,-47.6,0.0,False,0.0,0.0,0.0,0.0
54542.0,54542.0,0.0,0.0,0.0,78.81,1,0,0.03,0.1,-1.0,3.64,-3.92,-3.57,-90.38,54.72,-47.6,0.0,False,0.0,0.0,0.0,0.0
54542.0,54542.0,0.0,0.0,0.0,78.81,1,0,0.03,0.1,-1.0,3.64,-3.92,-3.57,-90.38,54.72,-47.6,0.0,False,0.0,0.0,0.0,0.0
54542.0,54542.0,0.0,0.0,0.0,78.81,1,0,0.03,0.1,-1.0,3.64,-3.92,-3.57,-90.38,54.72,-47.6,0.0,False,0.0,0.0,0.0,0.0
54562.0,54562.0,0.0,0.0,0.0,79.0,1,0,0.03,0.1,-0.99,3.78,-4.06,-3.57,-90.44,54.34,-47.6,0.0,False,0.0,0.0,0.0,0.0
54562.0,54562.0,0.0,0.0,0.0,79.0,1,0,0.03,0.1,-0.99,3.78,-4.06,-3.57,-90.44,54.34,-47.6,0.0,False,0.0,0.0,0.0,0.0
54562.0,54562.0,0.0,0.0,0.0,79.0,1,0,0.03,0.1,-0.99,3.78,-4.06,-3.57,-90.44,54.34,-47.6,0.0,False,0.0,0.0,0.0,0.0
54562.0,54562.0,0.0,0.0,0.0,79.0,1,0,0.03,0.1,-0.99,3.78,-4.06,-3.57,-90.44,54.34,-47.6,0.0,False,0.0,0.0,0.0,0.0
54582.0,54582.0,0.0,0.0,0.0,79.0,1,0,0.03,0.1,-0.99,3.57,-4.13,-3.5,-90.44,54.34,-47.6,0.0,False,0.0,0.0,0.0,0.0
54582.0,54582.0,0.0,0.0,0.0,79.0,1,0,0.03,0.1,-0.99,3.57,-4.13,-3.5,-90.44,54.34,-47.6,0.0,False,0.0,0.0,0.0,0.0
54582.0,54582.0,0.0,0.0,0.0,79.0,1,0,0.03,0.1,-0.99,3.57,-4.13,-3.5,-90.44,54.34,-47.6,0.0,False,0.0,0.0,0.0,0.0
54582.0,54582.0,0.0,0.0,0.0,79.0,1,0,0.03,0.1,-0.99,3.57,-4.13,-3.5,-90.44,54.34,-47.6,0.0,False,0.0,0.0,0.0,0.0
54602.0,54602.0,0.0,0.0,0.0,79.0,1,0,0.03,0.1,-0.99,3.71,-4.2,-3.36,-90.44,54.34,-47.6,0.0,False,0.0,0.0,0.0,0.0
54602.0,54602.0,0.0,0.0,0.0,79.0,1,0,0.03,0.1,-0.99,3.71,-4.2,-3.36,-90.44,54.34,-47.6,0.0,False,0.0,0.0,0.0,0.0
54602.0,54602.0,0.0,0.0,0.0,79.0,1,0,0.03,0.1,-0.99,3.71,-4.2,-3.36,-90.44,54.34,-47.6,0.0,False,0.0,0.0,0.0,0.0
54602.0,54602.0,0.0,0.0,0.0,79.0,1,0,0.03,0.1,-0.99,3.71,-4.2,-3.36,-90.44,54.34,-47.6,0.0,False,0.0,0.0,0.0,0.0
54622.0,54622.0,0.0,0.0,0.0,79.0,1,0,0.03,0.1,-1.0,3.85,-4.13,-3.43,-90.44,54.34,-47.6,0.0,False,0.0,0.0,0.0,0.0
54622.0,54622.0,0.0,0.0,0.0,79.0,1,0,0.03,0.1,-1.0,3.85,-4.13,-3.43,-90.44,54.34,-47.6,0.0,False,0.0,0.0,0.0,0.0
54622.0,54622.0,0.0,0.0,0.0,79.0,1,0,0.03,0.1,-1.0,3.85,-4.13,-3.43,-90.44,54.34,-47.6,0.0,False,0.0,0.0,0.0,0.0
54622.0,54622.0,0.0,0.0,0.0,79.0,1,0,0.03,0.1,-1.0,3.85,-4.13,-3.43,-90.44,54.34,-47.6,0.0,False,0.0,0.0,0.0,0.0
54622.0,54622.0,0.0,0.0,0.0,79.0,1,0,0.03,0.1,-1.0,3.85,-4.13,-3.43,-90.44,54.34,-47.6,0.0,False,0.0,0.0,0.0,0.0
54644.0,54644.0,0.0,0.0,0.0,79.0,1,0,0.02,0.1,-0.99,3.99,-4.41,-3.85,-89.8,54.47,-47.16,0.0,False,0.0,0.0,0.0,0.0
54644.0,54644.0,0.0,0.0,0.0,79.0,1,0,0.02,0.1,-0.99,3.99,-4.41,-3.85,-89.8,54.47,-47.16,0.0,False,0.0,0.0,0.0,0.0
54644.0,54644.0,0.0,0.0,0.0,79.0,1,0,0.02,0.1,-0.99,3.99,-4.41,-3.85,-89.8,54.47,-47.16,0.0,False,0.0,0.0,0.0,0.0
54644.0,54644.0,0.0,0.0,0.0,79.0,1,0,0.02,0.1,-0.99,3.99,-4.41,-3.85,-89.8,54.47,-47.16,0.0,False,0.0,0.0,0.0,0.0
54644.0,54644.0,0.0,0.0,0.0,79.0,1,0,0.02,0.1,-0.99,3.99,-4.41,-3.85,-89.8,54.47,-47.16,0.0,False,0.0,0.0,0.0,0.0
54666.0,54666.0,0.0,0.0,0.0,78.76,1,0,0.03,0.1,-1.0,3.85,-4.06,-3.57,-89.8,54.47,-47.16,0.0,False,0.0,0.0,0.0,0.0
54666.0,54666.0,0.0,0.0,0.0,78.76,1,0,0.03,0.1,-1.0,3.85,-4.06,-3.57,-89.8,54.47,-47.16,0.0,False,0.0,0.0,0.0,0.0
54666.0,54666.0,0.0,0.0,0.0,78.76,1,0,0.03,0.1,-1.0,3.85,-4.06,-3.57,-89.8,54.47,-47.16,0.0,False,0.0,0.0,0.0,0.0
54666.0,54666.0,0.0,0.0,0.0,78.76,1,0,0.03,0.1,-1.0,3.85,-4.06,-3.57,-89.8,54.47,-47.16,0.0,False,0.0,0.0,0.0,0.0
54666.0,54666.0,0.0,0.0,0.0,78.76,1,0,0.03,0.1,-1.0,3.85,-4.06,-3.57,-89.8,54.47,-47.16,0.0,False,0.0,0.0,0.0,0.0
54689.0,54689.0,0.0,0.0,0.0,78.76,1,0,0.03,0.1,-1.0,3.71,-4.06,-3.5,-89.8,54.47,-47.16,0.0,False,0.0,0.0,0.0,0.0
54689.0,54689.0,0.0,0.0,0.0,78.76,1,0,0.03,0.1,-1.0,3.71,-4.06,-3.5,-89.8,54.47,-47.16,0.0,False,0.0,0.0,0.0,0.0
54689.0,54689.0,0.0,0.0,0.0,78.76,1,0,0.03,0.1,-1.0,3.71,-4.06,-3.5,-89.8,54.47,-47.16,0.0,False,0.0,0.0,0.0,0.0
54689.0,54689.0,0.0,0.0,0.0,78.76,1,0,0.03,0.1,-1.0,3.71,-4.06,-3.5,-89.8,54.47,-47.16,0.0,False,0.0,0.0,0.0,0.0
54709.0,54709.0,0.0,0.0,0.0,78.76,1,0,0.03,0.1,-0.99,3.71,-3.99,-3.5,-89.8,54.47,-47.16,0.0,False,0.0,0.0,0.0,0.0
54709.0,54709.0,0.0,0.0,0.0,78.76,1,0,0.03,0.1,-0.99,3.71,-3.99,-3.5,-89.8,54.47,-47.16,0.0,False,0.0,0.0,0.0,0.0
54709.0,54709.0,0.0,0.0,0.0,78.76,1,0,0.03,0.1,-0.99,3.71,-3.99,-3.5,-89.8,54.47,-47.16,0.0,False,0.0,0.0,0.0,0.0
54709.0,54709.0,0.0,0.0,0.0,78.76,1,0,0.03,0.1,-0.99,3.71,-3.99,-3.5,-89.8,54.47,-47.16,0.0,False,0.0,0.0,0.0,0.0
54729.0,54729.0,0.0,0.0,0.0,78.76,1,0,0.03,0.1,-0.99,3.85,-4.2,-3.43,-89.8,54.47,-47.16,0.0,False,0.0,0.0,0.0,0.0
54729.0,54729.0,0.0,0.0,0.0,78.76,1,0,0.03,0.1,-0.99,3.85,-4.2,-3.43,-89.8,54.47,-47.16,0.0,False,0.0,0.0,0.0,0.0
54729.0,54729.0,0.0,0.0,0.0,78.76,1,0,0.03,0.1,-0.99,3.85,-4.2,-3.43,-89.8,54.47,-47.16,0.0,False,0.0,0.0,0.0,0.0
54729.0,54729.0,0.0,0.0,0.0,78.76,1,0,0.03,0.1,-0.99,3.85,-4.2,-3.43,-89.8,54.47,-47.16,0.0,False,0.0,0.0,0.0,0.0
54749.0,54749.0,0.0,0.0,0.0,78.78,1,0,0.02,0.1,-0.99,3.85,-3.92,-3.71,-90.69,54.97,-47.66,0.0,False,0.0,0.0,0.0,0.0
54749.0,54749.0,0.0,0.0,0.0,78.78,1,0,0.02,0.1,-0.99,3.85,-3.92,-3.71,-90.69,54.97,-47.66,0.0,False,0.0,0.0,0.0,0.0
54749.0,54749.0,0.0,0.0,0.0,78.78,1,0,0.02,0.1,-0.99,3.85,-3.92,-3.71,-90.69,54.97,-47.66,0.0,False,0.0,0.0,0.0,0.0
54749.0,54749.0,0.0,0.0,0.0,78.78,1,0,0.02,0.1,-0.99,3.85,-3.92,-3.71,-90.69,54.97,-47.66,0.0,False,0.0,0.0,0.0,0.0
54769.0,54769.0,0.0,0.0,0.0,78.78,1,0,0.03,0.1,-1.0,3.71,-4.13,-3.36,-90.69,54.97,-47.66,0.0,False,0.0,0.0,0.0,0.0
54769.0,54769.0,0.0,0.0,0.0,78.78,1,0,0.03,0.1,-1.0,3.71,-4.13,-3.36,-90.69,54.97,-47.66,0.0,False,0.0,0.0,0.0,0.0
54769.0,54769.0,0.0,0.0,0.0,78.78,1,0,0.03,0.1,-1.0,3.71,-4.13,-3.36,-90.69,54.97,-47.66,0.0,False,0.0,0.0,0.0,0.0
54769.0,54769.0,0.0,0.0,0.0,78.78,1,0,0.03,0.1,-1.0,3.71,-4.13,-3.36,-90.69,54.97,-47.66,0.0,False,0.0,0.0,0.0,0.0
54769.0,54769.0,0.0,0.0,0.0,78.78,1,0,0.03,0.1,-1.0,3.71,-4.13,-3.36,-90.69,54.97,-47.66,0.0,False,0.0,0.0,0.0,0.0
54792.0,54792.0,0.0,0.0,0.0,78.78,1,0,0.03,0.1,-1.0,3.64,-3.85,-3.29,-90.69,54.97,-47.66,0.0,False,0.0,0.0,0.0,0.0
54792.0,54792.0,0.0,0.0,0.0,78.78,1,0,0.03,0.1,-1.0,3.64,-3.85,-3.29,-90.69,54.97,-47.66,0.0,False,0.0,0.0,0.0,0.0
54792.0,54792.0,0.0,0.0,0.0,78.78,1,0,0.03,0.1,-1.0,3.64,-3.85,-3.29,-90.69,54.97,-47.66,0.0,False,0.0,0.0,0.0,0.0
54792.0,54792.0,0.0,0.0,0.0,78.78,1,0,0.03,0.1,-1.0,3.64,-3.85,-3.29,-90.69,54.97,-47.66,0.0,False,0.0,0.0,0.0,0.0
54792.0,54792.0,0.0,0.0,0.0,78.78,1,0,0.03,0.1,-1.0,3.64,-3.85,-3.29,-90.69,54.97,-47.66,0.0,False,0.0,0.0,0.0,0.0
54814.0,54814.0,0.0,0.0,0.0,78.78,1,0,0.03,0.1,-1.0,3.85,-4.13,-3.5,-90.69,54.97,-47.66,0.0,False,0.0,0.0,0.0,0.0
54814.0,54814.0,0.0,0.0,0.0,78.78,1,0,0.03,0.1,-1.0,3.85,-4.13,-3.5,-90.69,54.97,-47.66,0.0,False,0.0,0.0,0.0,0.0
54814.0,54814.0,0.0,0.0,0.0,78.78,1,0,0.03,0.1,-1.0,3.85,-4.13,-3.5,-90.69,54.97,-47.66,0.0,False,0.0,0.0,0.0,0.0
54814.0,54814.0,0.0,0.0,0.0,78.78,1,0,0.03,0.1,-1.0,3.85,-4.13,-3.5,-90.69,54.97,-47.66,0.0,False,0.0,0.0,0.0,0.0
54814.0,54814.0,0.0,0.0,0.0,78.78,1,0,0.03,0.1,-1.0,3.85,-4.13,-3.5,-90.69,54.97,-47.66,0.0,False,0.0,0.0,0.0,0.0
54836.0,54836.0,0.0,0.0,0.0,78.78,1,0,0.03,0.1,-1.0,3.71,-3.99,-3.5,-90.69,54.97,-47.66,0.0,False,0.0,0.0,0.0,0.0
54836.0,54836.0,0.0,0.0,0.0,78.78,1,0,0.03,0.1,-1.0,3.71,-3.99,-3.5,-90.69,54.97,-47.66,0.0,False,0.0,0.0,0.0,0.0
54836.0,54836.0,0.0,0.0,0.0,78.78,1,0,0.03,0.1,-1.0,3.71,-3.99,-3.5,-90.69,54.97,-47.66,0.0,False,0.0,0.0,0.0,0.0
54836.0,54836.0,0.0,0.0,0.0,78.78,1,0,0.03,0.1,-1.0,3.71,-3.99,-3.5,-90.69,54.97,-47.66,0.0,False,0.0,0.0,0.0,0.0
54836.0,54836.0,0.0,0.0,0.0,78.78,1,0,0.03,0.1,-1.0,3.71,-3.99,-3.5,-90.69,54.97,-47.66,0.0,False,0.0,0.0,0.0,0.0
54859.0,54859.0,0.0,0.0,0.0,78.57,1,0,0.03,0.1,-1.0,3.71,-4.41,-3.57,-90.11,55.07,-46.7,0.0,False,0.0,0.0,0.0,0.0
54859.0,54859.0,0.0,0.0,0.0,78.57,1,0,0.03,0.1,-1.0,3.71,-4.41,-3.57,-90.11,55.07,-46.7,0.0,False,0.0,0.0,0.0,0.0
54859.0,54859.0,0.0,0.0,0.0,78.57,1,0,0.03,0.1,-1.0,3.71,-4.41,-3.57,-90.11,55.07,-46.7,0.0,False,0.0,0.0,0.0,0.0
54859.0,54859.0,0.0,0.0,0.0,78.57,1,0,0.03,0.1,-1.0,3.71,-4.41,-3.57,-90.11,55.07,-46.7,0.0,False,0.0,0.0,0.0,0.0
54859.0,54859.0,0.0,0.0,0.0,78.57,1,0,0.03,0.1,-1.0,3.71,-4.41,-3.57,-90.11,55.07,-46.7,0.0,False,0.0,0.0,0.0,0.0
54882.0,54882.0,0.0,0.0,0.0,78.57,1,0,0.03,0.1,-1.0,3.85,-4.06,-3.57,-90.11,55.07,-46.7,0.0,False,0.0,0.0,0.0,0.0
54882.0,54882.0,0.0,0.0,0.0,78.57,1,0,0.03,0.1,-1.0,3.85,-4.06,-3.57,-90.11,55.07,-46.7,0.0,False,0.0,0.0,0.0,0.0
54882.0,54882.0,0.0,0.0,0.0,78.57,1,0,0.03,0.1,-1.0,3.85,-4.06,-3.57,-90.11,55.07,-46.7,0.0,False,0.0,0.0,0.0,0.0
54882.0,54882.0,0.0,0.0,0.0,78.57,1,0,0.03,0.1,-1.0,3.85,-4.06,-3.57,-90.11,55.07,-46.7,0.0,False,0.0,0.0,0.0,0.0
54882.0,54882.0,0.0,0.0,0.0,78.57,1,0,0.03,0.1,-1.0,3.85,-4.06,-3.57,-90.11,55.07,-46.7,0.0,False,0.0,0.0,0.0,0.0
54904.0,54904.0,0.0,0.0,0.0,78.57,1,0,0.03,0.1,-0.99,3.92,-4.06,-3.5,-90.11,55.07,-46.7,0.0,False,0.0,0.0,0.0,0.0
54904.0,54904.0,0.0,0.0,0.0,78.57,1,0,0.03,0.1,-0.99,3.92,-4.06,-3.5,-90.11,55.07,-46.7,0.0,False,0.0,0.0,0.0,0.0
54904.0,54904.0,0.0,0.0,0.0,78.57,1,0,0.03,0.1,-0.99,3.92,-4.06,-3.5,-90.11,55.07,-46.7,0.0,False,0.0,0.0,0.0,0.0
54904.0,54904.0,0.0,0.0,0.0,78.57,1,0,0.03,0.1,-0.99,3.92,-4.06,-3.5,-90.11,55.07,-46.7,0.0,False,0.0,0.0,0.0,0.0
54924.0,54924.0,0.0,0.0,0.0,78.57,1,0,0.03,0.1,-1.0,3.85,-3.99,-3.43,-90.11,55.07,-46.7,0.0,False,0.0,0.0,0.0,0.0
54924.0,54924.0,0.0,0.0,0.0,78.57,1,0,0.03,0.1,-1.0,3.85,-3.99,-3.43,-90.11,55.07,-46.7,0.0,False,0.0,0.0,0.0,0.0
54924.0,54924.0,0.0,0.0,0.0,78.57,1,0,0.03,0.1,-1.0,3.85,-3.99,-3.43,-90.11,55.07,-46.7,0.0,False,0.0,0.0,0.0,0.0
54924.0,54924.0,0.0,0.0,0.0,78.57,1,0,0.03,0.1,-1.0,3.85,-3.99,-3.43,-90.11,55.07,-46.7,0.0,False,0.0,0.0,0.0,0.0
54924.0,54924.0,0.0,0.0,0.0,78.57,1,0,0.03,0.1,-1.0,3.85,-3.99,-3.43,-90.11,55.07,-46.7,0.0,False,0.0,0.0,0.0,0.0
54946.0,54946.0,0.0,0.0,0.0,78.89,1,0,0.03,0.1,-1.0,3.57,-3.85,-3.5,-90.25,54.46,-47.4,0.0,False,0.0,0.0,0.0,0.0
54946.0,54946.0,0.0,0.0,0.0,78.89,1,0,0.03,0.1,-1.0,3.57,-3.85,-3.5,-90.25,54.46,-47.4,0.0,False,0.0,0.0,0.0,0.0
54946.0,54946.0,0.0,0.0,0.0,78.89,1,0,0.03,0.1,-1.0,3.57,-3.85,-3.5,-90.25,54.46,-47.4,0.0,False,0.0,0.0,0.0,0.0
54946.0,54946.0,0.0,0.0,0.0,78.89,1,0,0.03,0.1,-1.0,3.57,-3.85,-3.5,-90.25,54.46,-47.4,0.0,False,0.0,0.0,0.0,0.0
54966.0,54966.0,0.0,0.0,0.0,78.89,1,0,0.03,0.1,-1.0,3.71,-3.99,-3.5,-90.25,54.46,-47.4,0.0,False,0.0,0.0,0.0,0.0
54966.0,54966.0,0.0,0.0,0.0,78.89,1,0,0.03,0.1,-1.0,3.71,-3.99,-3.5,-90.25,54.46,-47.4,0.0,False,0.0,0.0,0.0,0.0
54966.0,54966.0,0.0,0.0,0.0,78.89,1,0,0.03,0.1,-1.0,3.71,-3.99,-3.5,-90.25,54.46,-47.4,0.0,False,0.0,0.0,0.0,0.0
54966.0,54966.0,0.0,0.0,0.0,78.89,1,0,0.03,0.1,-1.0,3.71,-3.99,-3.5,-90.25,54.46,-47.4,0.0,False,0.0,0.0,0.0,0.0
54966.0,54966.0,0.0,0.0,0.0,78.89,1,0,0.03,0.1,-1.0,3.71,-3.99,-3.5,-90.25,54.46,-47.4,0.0,False,0.0,0.0,0.0,0.0
54988.0,54988.0,0.0,0.0,0.0,78.89,1,0,0.03,0.1,-1.0,3.78,-3.92,-3.57,-90.25,54.46,-47.4,0.0,False,0.0,0.0,0.0,0.0
54988.0,54988.0,0.0,0.0,0.0,78.89,1,0,0.03,0.1,-1.0,3.78,-3.92,-3.57,-90.25,54.46,-47.4,0.0,False,0.0,0.0,0.0,0.0
54988.0,54988.0,0.0,0.0,0.0,78.89,1,0,0.03,0.1,-1.0,3.78,-3.92,-3.57,-90.25,54.46,-47.4,0.0,False,0.0,0.0,0.0,0.0
54988.0,54988.0,0.0,0.0,0.0,78.89,1,0,0.03,0.1,-1.0,3.78,-3.92,-3.57,-90.25,54.46,-47.4,0.0,False,0.0,0.0,0.0,0.0
55008.0,55008.0,0.0,0.0,0.0,78.89,1,0,0.03,0.1,-1.0,3.64,-4.06,-3.71,-90.25,54.46,-47.4,0.0,False,0.0,0.0,0.0,0.0
55008.0,55008.0,0.0,0.0,0.0,78.89,1,0,0.03,0.1,-1.0,3.64,-4.06,-3.71,-90.25,54.46,-47.4,0.0,False,0.0,0.0,0.0,0.0
55008.0,55008.0,0.0,0.0,0.0,78.89,1,0,0.03,0.1,-1.0,3.64,-4.06,-3.71,-90.25,54.46,-47.4,0.0,False,0.0,0.0,0.0,0.0
55008.0,55008.0,0.0,0.0,0.0,78.89,1,0,0.03,0.1,-1.0,3.64,-4.06,-3.71,-90.25,54.46,-47.4,0.0,False,0.0,0.0,0.0,0.0
55028.0,55028.0,0.0,0.0,0.0,78.89,1,0,0.03,0.1,-1.0,3.85,-4.13,-3.29,-90.25,54.46,-47.4,0.0,False,0.0,0.0,0.0,0.0
55028.0,55028.0,0.0,0.0,0.0,78.89,1,0,0.03,0.1,-1.0,3.85,-4.13,-3.29,-90.25,54.46,-47.4,0.0,False,0.0,0.0,0.0,0.0
55028.0,55028.0,0.0,0.0,0.0,78.89,1,0,0.03,0.1,-1.0,3.85,-4.13,-3.29,-90.25,54.46,-47.4,0.0,False,0.0,0.0,0.0,0.0
55028.0,55028.0,0.0,0.0,0.0,78.89,1,0,0.03,0.1,-1.0,3.85,-4.13,-3.29,-90.25,54.46,-47.4,0.0,False,0.0,0.0,0.0,0.0
55048.0,55048.0,0.0,0.0,0.0,78.74,1,0,0.03,0.1,-1.0,3.85,-4.13,-3.57,-90.35,54.85,-47.72,0.0,False,0.0,0.0,0.0,0.0
55048.0,55048.0,0.0,0.0,0.0,78.74,1,0,0.03,0.1,-1.0,3.85,-4.13,-3.57,-90.35,54.85,-47.72,0.0,False,0.0,0.0,0.0,0.0
55048.0,55048.0,0.0,0.0,0.0,78.74,1,0,0.03,0.1,-1.0,3.85,-4.13,-3.57,-90.35,54.85,-47.72,0.0,False,0.0,0.0,0.0,0.0
55048.0,55048.0,0.0,0.0,0.0,78.74,1,0,0.03,0.1,-1.0,3.85,-4.13,-3.57,-90.35,54.85,-47.72,0.0,False,0.0,0.0,0.0,0.0
55048.0,55048.0,0.0,0.0,0.0,78.74,1,0,0.03,0.1,-1.0,3.85,-4.13,-3.57,-90.35,54.85,-47.72,0.0,False,0.0,0.0,0.0,0.0
55071.0,55071.0,0.0,0.0,0.0,78.74,1,0,0.03,0.1,-0.99,3.78,-4.06,-3.43,-90.35,54.85,-47.72,0.0,False,0.0,0.0,0.0,0.0
55071.0,55071.0,0.0,0.0,0.0,78.74,1,0,0.03,0.1,-0.99,3.78,-4.06,-3.43,-90.35,54.85,-47.72,0.0,False,0.0,0.0,0.0,0.0
55071.0,55071.0,0.0,0.0,0.0,78.74,1,0,0.03,0.1,-0.99,3.78,-4.06,-3.43,-90.35,54.85,-47.72,0.0,False,0.0,0.0,0.0,0.0
55071.0,55071.0,0.0,0.0,0.0,78.74,1,0,0.03,0.1,-0.99,3.78,-4.06,-3.43,-90.35,54.85,-47.72,0.0,False,0.0,0.0,0.0,0.0
55071.0,55071.0,0.0,0.0,0.0,78.74,1,0,0.03,0.1,-0.99,3.78,-4.06,-3.43,-90.35,54.85,-47.72,0.0,False,0.0,0.0,0.0,0.0
55093.0,55093.0,0.0,0.0,0.0,78.74,1,0,0.03,0.1,-0.99,3.78,-3.92,-3.64,-90.35,54.85,-47.72,0.0,False,0.0,0.0,0.0,0.0
55093.0,55093.0,0.0,0.0,0.0,78.74,1,0,0.03,0.1,-0.99,3.78,-3.92,-3.64,-90.35,54.85,-47.72,0.0,False,0.0,0.0,0.0,0.0
55093.0,55093.0,0.0,0.0,0.0,78.74,1,0,0.03,0.1,-0.99,3.78,-3.92,-3.64,-90.35,54.85,-47.72,0.0,False,0.0,0.0,0.0,0.0
55093.0,55093.0,0.0,0.0,0.0,78.74,1,0,0.03,0.1,-0.99,3.78,-3.92,-3.64,-90.35,54.85,-47.72,0.0,False,0.0,0.0,0.0,0.0
55113.0,55113.0,0.0,0.0,0.0,78.74,1,0,0.03,0.1,-1.0,3.85,-4.13,-3.36,-90.35,54.85,-47.72,0.0,False,0.0,0.0,0.0,0.0
55113.0,55113.0,0.0,0.0,0.0,78.74,1,0,0.03,0.1,-1.0,3.85,-4.13,-3.36,-90.35,54.85,-47.72,0.0,False,0.0,0.0,0.0,0.0
55113.0,55113.0,0.0,0.0,0.0,78.74,1,0,0.03,0.1,-1.0,3.85,-4.13,-3.36,-90.35,54.85,-47.72,0.0,False,0.0,0.0,0.0,0.0
55113.0,55113.0,0.0,0.0,0.0,78.74,1,0,0.03,0.1,-1.0,3.85,-4.13,-3.36,-90.35,54.85,-47.72,0.0,False,0.0,0.0,0.0,0.0
55133.0,55133.0,0.0,0.0,0.0,78.74,1,0,0.03,0.1,-1.0,3.92,-3.99,-3.43,-90.35,54.85,-47.72,0.0,False,0.0,0.0,0.0,0.0
55133.0,55133.0,0.0,0.0,0.0,78.74,1,0,0.03,0.1,-1.0,3.92,-3.99,-3.43,-90.35,54.85,-47.72,0.0,False,0.0,0.0,0.0,0.0
55133.0,55133.0,0.0,0.0,0.0,78.74,1,0,0.03,0.1,-1.0,3.92,-3.99,-3.43,-90.35,54.85,-47.72,0.0,False,0.0,0.0,0.0,0.0
55133.0,55133.0,0.0,0.0,0.0,78.74,1,0,0.03,0.1,-1.0,3.92,-3.99,-3.43,-90.35,54.85,-47.72,0.0,False,0.0,0.0,0.0,0.0
55153.0,55153.0,0.0,0.0,0.0,78.86,1,0,0.02,0.1,-1.0,3.78,-4.27,-3.57,-90.22,54.52,-47.47,0.0,False,0.0,0.0,0.0,0.0
55153.0,55153.0,0.0,0.0,0.0,78.86,1,0,0.02,0.1,-1.0,3.78,-4.27,-3.57,-90.22,54.52,-47.47,0.0,False,0.0,0.0,0.0,0.0
55153.0,55153.0,0.0,0.0,0.0,78.86,1,0,0.02,0.1,-1.0,3.78,-4.27,-3.57,-90.22,54.52,-47.47,0.0,False,0.0,0.0,0.0,0.0
55153.0,55153.0,0.0,0.0,0.0,78.86,1,0,0.02,0.1,-1.0,3.78,-4.27,-3.57,-90.22,54.52,-47.47,0.0,False,0.0,0.0,0.0,0.0
55173.0,55173.0,0.0,0.0,0.0,78.86,1,0,0.03,0.1,-1.0,3.64,-4.2,-3.36,-90.22,54.52,-47.47,0.0,False,0.0,0.0,0.0,0.0
55173.0,55173.0,0.0,0.0,0.0,78.86,1,0,0.03,0.1,-1.0,3.64,-4.2,-3.36,-90.22,54.52,-47.47,0.0,False,0.0,0.0,0.0,0.0
55173.0,55173.0,0.0,0.0,0.0,78.86,1,0,0.03,0.1,-1.0,3.64,-4.2,-3.36,-90.22,54.52,-47.47,0.0,False,0.0,0.0,0.0,0.0
55173.0,55173.0,0.0,0.0,0.0,78.86,1,0,0.03,0.1,-1.0,3.64,-4.2,-3.36,-90.22,54.52,-47.47,0.0,False,0.0,0.0,0.0,0.0
55173.0,55173.0,0.0,0.0,0.0,78.86,1,0,0.03,0.1,-1.0,3.64,-4.2,-3.36,-90.22,54.52,-47.47,0.0,False,0.0,0.0,0.0,0.0
55196.0,55196.0,0.0,0.0,0.0,78.86,1,0,0.03,0.1,-1.0,3.71,-4.27,-3.36,-90.22,54.52,-47.47,0.0,False,0.0,0.0,0.0,0.0
55196.0,55196.0,0.0,0.0,0.0,78.86,1,0,0.03,0.1,-1.0,3.71,-4.27,-3.36,-90.22,54.52,-47.47,0.0,False,0.0,0.0,0.0,0.0
55196.0,55196.0,0.0,0.0,0.0,78.86,1,0,0.03,0.1,-1.0,3.71,-4.27,-3.36,-90.22,54.52,-47.47,0.0,False,0.0,0.0,0.0,0.0
55196.0,55196.0,0.0,0.0,0.0,78.86,1,0,0.03,0.1,-1.0,3.71,-4.27,-3.36,-90.22,54.52,-47.47,0.0,False,0.0,0.0,0.0,0.0
55216.0,55216.0,0.0,0.0,0.0,78.86,1,0,0.03,0.11,-0.99,3.71,-4.06,-3.5,-90.22,54.52,-47.47,0.0,False,0.0,0.0,0.0,0.0
55216.0,55216.0,0.0,0.0,0.0,78.86,1,0,0.03,0.11,-0.99,3.71,-4.06,-3.5,-90.22,54.52,-47.47,0.0,False,0.0,0.0,0.0,0.0
55216.0,55216.0,0.0,0.0,0.0,78.86,1,0,0.03,0.11,-0.99,3.71,-4.06,-3.5,-90.22,54.52,-47.47,0.0,False,0.0,0.0,0.0,0.0
55216.0,55216.0,0.0,0.0,0.0,78.86,1,0,0.03,0.11,-0.99,3.71,-4.06,-3.5,-90.22,54.52,-47.47,0.0,False,0.0,0.0,0.0,0.0
55216.0,55216.0,0.0,0.0,0.0,78.86,1,0,0.03,0.11,-0.99,3.71,-4.06,-3.5,-90.22,54.52,-47.47,0.0,False,0.0,0.0,0.0,0.0
55239.0,55239.0,0.0,0.0,0.0,78.86,1,0,0.03,0.11,-0.99,3.78,-4.06,-3.5,-91.11,54.41,-47.63,0.0,False,0.0,0.0,0.0,0.0
55239.0,55239.0,0.0,0.0,0.0,78.86,1,0,0.03,0.11,-0.99,3.78,-4.06,-3.5,-91.11,54.41,-47.63,0.0,False,0.0,0.0,0.0,0.0
55239.0,55239.0,0.0,0.0,0.0,78.86,1,0,0.03,0.11,-0.99,3.78,-4.06,-3.5,-91.11,54.41,-47.63,0.0,False,0.0,0.0,0.0,0.0
55239.0,55239.0,0.0,0.0,0.0,78.86,1,0,0.03,0.11,-0.99,3.78,-4.06,-3.5,-91.11,54.41,-47.63,0.0,False,0.0,0.0,0.0,0.0
55239.0,55239.0,0.0,0.0,0.0,78.86,1,0,0.03,0.11,-0.99,3.78,-4.06,-3.5,-91.11,54.41,-47.63,0.0,False,0.0,0.0,0.0,0.0
55262.0,55262.0,0.0,0.0,0.0,79.15,1,0,0.02,0.1,-0.99,3.71,-3.99,-3.57,-91.11,54.41,-47.63,0.0,False,0.0,0.0,0.0,0.0
55262.0,55262.0,0.0,0.0,0.0,79.15,1,0,0.02,0.1,-0.99,3.71,-3.99,-3.57,-91.11,54.41,-47.63,0.0,False,0.0,0.0,0.0,0.0
55262.0,55262.0,0.0,0.0,0.0,79.15,1,0,0.02,0.1,-0.99,3.71,-3.99,-3.57,-91.11,54.41,-47.63,0.0,False,0.0,0.0,0.0,0.0
55262.0,55262.0,0.0,0.0,0.0,79.15,1,0,0.02,0.1,-0.99,3.71,-3.99,-3.57,-91.11,54.41,-47.63,0.0,False,0.0,0.0,0.0,0.0
55262.0,55262.0,0.0,0.0,0.0,79.15,1,0,0.02,0.1,-0.99,3.71,-3.99,-3.57,-91.11,54.41,-47.63,0.0,False,0.0,0.0,0.0,0.0
55285.0,55285.0,0.0,0.0,0.0,79.15,1,0,0.03,0.1,-1.0,3.78,-4.27,-3.36,-91.11,54.41,-47.63,0.0,False,0.0,0.0,0.0,0.0
55285.0,55285.0,0.0,0.0,0.0,79.15,1,0,0.03,0.1,-1.0,3.78,-4.27,-3.36,-91.11,54.41,-47.63,0.0,False,0.0,0.0,0.0,0.0
55285.0,55285.0,0.0,0.0,0.0,79.15,1,0,0.03,0.1,-1.0,3.78,-4.27,-3.36,-91.11,54.41,-47.63,0.0,False,0.0,0.0,0.0,0.0
55285.0,55285.0,0.0,0.0,0.0,79.15,1,0,0.03,0.1,-1.0,3.78,-4.27,-3.36,-91.11,54.41,-47.63,0.0,False,0.0,0.0,0.0,0.0
55285.0,55285.0,0.0,0.0,0.0,79.15,1,0,0.03,0.1,-1.0,3.78,-4.27,-3.36,-91.11,54.41,-47.63,0.0,False,0.0,0.0,0.0,0.0
55308.0,55308.0,0.0,0.0,0.0,79.15,1,0,0.03,0.1,-1.0,3.64,-4.13,-3.43,-91.11,54.41,-47.63,0.0,False,0.0,0.0,0.0,0.0
55308.0,55308.0,0.0,0.0,0.0,79.15,1,0,0.03,0.1,-1.0,3.64,-4.13,-3.43,-91.11,54.41,-47.63,0.0,False,0.0,0.0,0.0,0.0
55308.0,55308.0,0.0,0.0,0.0,79.15,1,0,0.03,0.1,-1.0,3.64,-4.13,-3.43,-91.11,54.41,-47.63,0.0,False,0.0,0.0,0.0,0.0
55308.0,55308.0,0.0,0.0,0.0,79.15,1,0,0.03,0.1,-1.0,3.64,-4.13,-3.43,-91.11,54.41,-47.63,0.0,False,0.0,0.0,0.0,0.0
55328.0,55328.0,0.0,0.0,0.0,79.15,1,0,0.03,0.1,-1.0,3.78,-3.99,-3.57,-91.11,54.41,-47.63,0.0,False,0.0,0.0,0.0,0.0
55328.0,55328.0,0.0,0.0,0.0,79.15,1,0,0.03,0.1,-1.0,3.78,-3.99,-3.57,-91.11,54.41,-47.63,0.0,False,0.0,0.0,0.0,0.0
55328.0,55328.0,0.0,0.0,0.0,79.15,1,0,0.03,0.1,-1.0,3.78,-3.99,-3.57,-91.11,54.41,-47.63,0.0,False,0.0,0.0,0.0,0.0
55328.0,55328.0,0.0,0.0,0.0,79.15,1,0,0.03,0.1,-1.0,3.78,-3.99,-3.57,-91.11,54.41,-47.63,0.0,False,0.0,0.0,0.0,0.0
55328.0,55328.0,0.0,0.0,0.0,79.15,1,0,0.03,0.1,-1.0,3.78,-3.99,-3.57,-91.11,54.41,-47.63,0.0,False,0.0,0.0,0.0,0.0
55350.0,55350.0,0.0,0.0,0.0,78.83,1,0,0.03,0.1,-1.0,3.78,-4.2,-3.36,-90.46,54.72,-47.65,0.0,False,0.0,0.0,0.0,0.0
55350.0,55350.0,0.0,0.0,0.0,78.83,1,0,0.03,0.1,-1.0,3.78,-4.2,-3.36,-90.46,54.72,-47.65,0.0,False,0.0,0.0,0.0,0.0
55350.0,55350.0,0.0,0.0,0.0,78.83,1,0,0.03,0.1,-1.0,3.78,-4.2,-3.36,-90.46,54.72,-47.65,0.0,False,0.0,0.0,0.0,0.0
55350.0,55350.0,0.0,0.0,0.0,78.83,1,0,0.03,0.1,-1.0,3.78,-4.2,-3.36,-90.46,54.72,-47.65,0.0,False,0.0,0.0,0.0,0.0
55370.0,55370.0,0.0,0.0,0.0,78.83,1,0,0.03,0.1,-1.0,3.64,-4.06,-3.43,-90.46,54.72,-47.65,0.0,False,0.0,0.0,0.0,0.0
55370.0,55370.0,0.0,0.0,0.0,78.83,1,0,0.03,0.1,-1.0,3.64,-4.06,-3.43,-90.46,54.72,-47.65,0.0,False,0.0,0.0,0.0,0.0
55370.0,55370.0,0.0,0.0,0.0,78.83,1,0,0.03,0.1,-1.0,3.64,-4.06,-3.43,-90.46,54.72,-47.65,0.0,False,0.0,0.0,0.0,0.0
55370.0,55370.0,0.0,0.0,0.0,78.83,1,0,0.03,0.1,-1.0,3.64,-4.06,-3.43,-90.46,54.72,-47.65,0.0,False,0.0,0.0,0.0,0.0
55390.0,55390.0,0.0,0.0,0.0,78.83,1,0,0.03,0.1,-1.0,3.71,-3.99,-3.43,-90.46,54.72,-47.65,0.0,False,0.0,0.0,0.0,0.0
55390.0,55390.0,0.0,0.0,0.0,78.83,1,0,0.03,0.1,-1.0,3.71,-3.99,-3.43,-90.46,54.72,-47.65,0.0,False,0.0,0.0,0.0,0.0
55390.0,55390.0,0.0,0.0,0.0,78.83,1,0,0.03,0.1,-1.0,3.71,-3.99,-3.43,-90.46,54.72,-47.65,0.0,False,0.0,0.0,0.0,0.0
55390.0,55390.0,0.0,0.0,0.0,78.83,1,0,0.03,0.1,-1.0,3.71,-3.99,-3.43,-90.46,54.72,-47.65,0.0,False,0.0,0.0,0.0,0.0
55390.0,55390.0,0.0,0.0,0.0,78.83,1,0,0.03,0.1,-1.0,3.71,-3.99,-3.43,-90.46,54.72,-47.65,0.0,False,0.0,0.0,0.0,0.0
55412.0,55412.0,0.0,0.0,0.0,78.83,1,0,0.03,0.1,-1.0,3.85,-4.06,-3.5,-90.46,54.72,-47.65,0.0,False,0.0,0.0,0.0,0.0
55412.0,55412.0,0.0,0.0,0.0,78.83,1,0,0.03,0.1,-1.0,3.85,-4.06,-3.5,-90.46,54.72,-47.65,0.0,False,0.0,0.0,0.0,0.0
55412.0,55412.0,0.0,0.0,0.0,78.83,1,0,0.03,0.1,-1.0,3.85,-4.06,-3.5,-90.46,54.72,-47.65,0.0,False,0.0,0.0,0.0,0.0
55412.0,55412.0,0.0,0.0,0.0,78.83,1,0,0.03,0.1,-1.0,3.85,-4.06,-3.5,-90.46,54.72,-47.65,0.0,False,0.0,0.0,0.0,0.0
55432.0,55432.0,0.0,0.0,0.0,78.83,1,0,0.03,0.1,-1.0,3.85,-4.06,-3.43,-90.15,55.28,-47.49,0.0,False,0.0,0.0,0.0,0.0
55432.0,55432.0,0.0,0.0,0.0,78.83,1,0,0.03,0.1,-1.0,3.85,-4.06,-3.43,-90.15,55.28,-47.49,0.0,False,0.0,0.0,0.0,0.0
55432.0,55432.0,0.0,0.0,0.0,78.83,1,0,0.03,0.1,-1.0,3.85,-4.06,-3.43,-90.15,55.28,-47.49,0.0,False,0.0,0.0,0.0,0.0
55432.0,55432.0,0.0,0.0,0.0,78.83,1,0,0.03,0.1,-1.0,3.85,-4.06,-3.43,-90.15,55.28,-47.49,0.0,False,0.0,0.0,0.0,0.0
55452.0,55452.0,0.0,0.0,0.0,78.48,1,0,0.03,0.11,-0.99,3.78,-4.06,-3.43,-90.15,55.28,-47.49,0.0,False,0.0,0.0,0.0,0.0
55452.0,55452.0,0.0,0.0,0.0,78.48,1,0,0.03,0.11,-0.99,3.78,-4.06,-3.43,-90.15,55.28,-47.49,0.0,False,0.0,0.0,0.0,0.0
55452.0,55452.0,0.0,0.0,0.0,78.48,1,0,0.03,0.11,-0.99,3.78,-4.06,-3.43,-90.15,55.28,-47.49,0.0,False,0.0,0.0,0.0,0.0
55452.0,55452.0,0.0,0.0,0.0,78.48,1,0,0.03,0.11,-0.99,3.78,-4.06,-3.43,-90.15,55.28,-47.49,0.0,False,0.0,0.0,0.0,0.0
55472.0,55472.0,0.0,0.0,0.0,78.48,1,0,0.02,0.1,-0.99,3.71,-3.92,-3.64,-90.15,55.28,-47.49,0.0,False,0.0,0.0,0.0,0.0
55472.0,55472.0,0.0,0.0,0.0,78.48,1,0,0.02,0.1,-0.99,3.71,-3.92,-3.64,-90.15,55.28,-47.49,0.0,False,0.0,0.0,0.0,0.0
55472.0,55472.0,0.0,0.0,0.0,78.48,1,0,0.02,0.1,-0.99,3.71,-3.92,-3.64,-90.15,55.28,-47.49,0.0,False,0.0,0.0,0.0,0.0
55472.0,55472.0,0.0,0.0,0.0,78.48,1,0,0.02,0.1,-0.99,3.71,-3.92,-3.64,-90.15,55.28,-47.49,0.0,False,0.0,0.0,0.0,0.0
55472.0,55472.0,0.0,0.0,0.0,78.48,1,0,0.02,0.1,-0.99,3.71,-3.92,-3.64,-90.15,55.28,-47.49,0.0,False,0.0,0.0,0.0,0.0
55494.0,55494.0,0.0,0.0,0.0,78.48,1,0,0.03,0.1,-1.0,3.92,-4.2,-3.5,-90.15,55.28,-47.49,0.0,False,0.0,0.0,0.0,0.0
55494.0,55494.0,0.0,0.0,0.0,78.48,1,0,0.03,0.1,-1.0,3.92,-4.2,-3.5,-90.15,55.28,-47.49,0.0,False,0.0,0.0,0.0,0.0
55494.0,55494.0,0.0,0.0,0.0,78.48,1,0,0.03,0.1,-1.0,3.92,-4.2,-3.5,-90.15,55.28,-47.49,0.0,False,0.0,0.0,0.0,0.0
55494.0,55494.0,0.0,0.0,0.0,78.48,1,0,0.03,0.1,-1.0,3.92,-4.2,-3.5,-90.15,55.28,-47.49,0.0,False,0.0,0.0,0.0,0.0
55494.0,55494.0,0.0,0.0,0.0,78.48,1,0,0.03,0.1,-1.0,3.92,-4.2,-3.5,-90.15,55.28,-47.49,0.0,False,0.0,0.0,0.0,0.0
55516.0,55516.0,0.0,0.0,0.0,78.48,1,0,0.03,0.1,-1.0,3.78,-3.85,-3.36,-90.15,55.28,-47.49,0.0,False,0.0,0.0,0.0,0.0
55516.0,55516.0,0.0,0.0,0.0,78.48,1,0,0.03,0.1,-1.0,3.78,-3.85,-3.36,-90.15,55.28,-47.49,0.0,False,0.0,0.0,0.0,0.0
55516.0,55516.0,0.0,0.0,0.0,78.48,1,0,0.03,0.1,-1.0,3.78,-3.85,-3.36,-90.15,55.28,-47.49,0.0,False,0.0,0.0,0.0,0.0
55516.0,55516.0,0.0,0.0,0.0,78.48,1,0,0.03,0.1,-1.0,3.78,-3.85,-3.36,-90.15,55.28,-47.49,0.0,False,0.0,0.0,0.0,0.0
55536.0,55536.0,0.0,0.0,0.0,78.77,1,0,0.03,0.1,-1.0,3.78,-3.92,-3.57,-90.12,54.66,-47.28,0.0,False,0.0,0.0,0.0,0.0
55536.0,55536.0,0.0,0.0,0.0,78.77,1,0,0.03,0.1,-1.0,3.78,-3.92,-3.57,-90.12,54.66,-47.28,0.0,False,0.0,0.0,0.0,0.0
55536.0,55536.0,0.0,0.0,0.0,78.77,1,0,0.03,0.1,-1.0,3.78,-3.92,-3.57,-90.12,54.66,-47.28,0.0,False,0.0,0.0,0.0,0.0
55536.0,55536.0,0.0,0.0,0.0,78.77,1,0,0.03,0.1,-1.0,3.78,-3.92,-3.57,-90.12,54.66,-47.28,0.0,False,0.0,0.0,0.0,0.0
55536.0,55536.0,0.0,0.0,0.0,78.77,1,0,0.03,0.1,-1.0,3.78,-3.92,-3.57,-90.12,54.66,-47.28,0.0,False,0.0,0.0,0.0,0.0
55558.0,55558.0,0.0,0.0,0.0,78.76,1,0,0.03,0.1,-0.99,3.78,-4.41,-3.36,-90.12,54.66,-47.28,0.0,False,0.0,0.0,0.0,0.0
55558.0,55558.0,0.0,0.0,0.0,78.76,1,0,0.03,0.1,-0.99,3.78,-4.41,-3.36,-90.12,54.66,-47.28,0.0,False,0.0,0.0,0.0,0.0
55558.0,55558.0,0.0,0.0,0.0,78.76,1,0,0.03,0.1,-0.99,3.78,-4.41,-3.36,-90.12,54.66,-47.28,0.0,False,0.0,0.0,0.0,0.0
55558.0,55558.0,0.0,0.0,0.0,78.76,1,0,0.03,0.1,-0.99,3.78,-4.41,-3.36,-90.12,54.66,-47.28,0.0,False,0.0,0.0,0.0,0.0
55558.0,55558.0,0.0,0.0,0.0,78.76,1,0,0.03,0.1,-0.99,3.78,-4.41,-3.36,-90.12,54.66,-47.28,0.0,False,0.0,0.0,0.0,0.0
55580.0,55580.0,0.0,0.0,0.0,78.76,1,0,0.03,0.1,-1.0,3.85,-4.2,-3.64,-90.12,54.66,-47.28,0.0,False,0.0,0.0,0.0,0.0
55580.0,55580.0,0.0,0.0,0.0,78.76,1,0,0.03,0.1,-1.0,3.85,-4.2,-3.64,-90.12,54.66,-47.28,0.0,False,0.0,0.0,0.0,0.0
55580.0,55580.0,0.0,0.0,0.0,78.76,1,0,0.03,0.1,-1.0,3.85,-4.2,-3.64,-90.12,54.66,-47.28,0.0,False,0.0,0.0,0.0,0.0
55580.0,55580.0,0.0,0.0,0.0,78.76,1,0,0.03,0.1,-1.0,3.85,-4.2,-3.64,-90.12,54.66,-47.28,0.0,False,0.0,0.0,0.0,0.0
55600.0,55600.0,0.0,0.0,0.0,78.76,1,0,0.03,0.1,-1.0,3.85,-4.06,-3.57,-90.12,54.66,-47.28,0.0,False,0.0,0.0,0.0,0.0
55600.0,55600.0,0.0,0.0,0.0,78.76,1,0,0.03,0.1,-1.0,3.85,-4.06,-3.57,-90.12,54.66,-47.28,0.0,False,0.0,0.0,0.0,0.0
55600.0,55600.0,0.0,0.0,0.0,78.76,1,0,0.03,0.1,-1.0,3.85,-4.06,-3.57,-90.12,54.66,-47.28,0.0,False,0.0,0.0,0.0,0.0
55600.0,55600.0,0.0,0.0,0.0,78.76,1,0,0.03,0.1,-1.0,3.85,-4.06,-3.57,-90.12,54.66,-47.28,0.0,False,0.0,0.0,0.0,0.0
55620.0,55620.0,0.0,0.0,0.0,78.76,1,0,0.03,0.1,-0.99,3.5,-4.06,-3.57,-90.12,54.66,-47.28,0.0,False,0.0,0.0,0.0,0.0
55620.0,55620.0,0.0,0.0,0.0,78.76,1,0,0.03,0.1,-0.99,3.5,-4.06,-3.57,-90.12,54.66,-47.28,0.0,False,0.0,0.0,0.0,0.0
55620.0,55620.0,0.0,0.0,0.0,78.76,1,0,0.03,0.1,-0.99,3.5,-4.06,-3.57,-90.12,54.66,-47.28,0.0,False,0.0,0.0,0.0,0.0
55620.0,55620.0,0.0,0.0,0.0,78.76,1,0,0.03,0.1,-0.99,3.5,-4.06,-3.57,-90.12,54.66,-47.28,0.0,False,0.0,0.0,0.0,0.0
55640.0,55640.0,0.0,0.0,0.0,78.76,1,0,0.03,0.1,-0.99,3.57,-4.2,-3.36,-90.66,55.0,-47.62,0.0,False,0.0,0.0,0.0,0.0
55640.0,55640.0,0.0,0.0,0.0,78.76,1,0,0.03,0.1,-0.99,3.57,-4.2,-3.36,-90.66,55.0,-47.62,0.0,False,0.0,0.0,0.0,0.0
55640.0,55640.0,0.0,0.0,0.0,78.76,1,0,0.03,0.1,-0.99,3.57,-4.2,-3.36,-90.66,55.0,-47.62,0.0,False,0.0,0.0,0.0,0.0
55640.0,55640.0,0.0,0.0,0.0,78.76,1,0,0.03,0.1,-0.99,3.57,-4.2,-3.36,-90.66,55.0,-47.62,0.0,False,0.0,0.0,0.0,0.0
55660.0,55660.0,0.0,0.0,0.0,78.76,1,0,0.03,0.11,-0.99,3.78,-4.2,-3.43,-90.66,55.0,-47.62,0.0,False,0.0,0.0,0.0,0.0
55660.0,55660.0,0.0,0.0,0.0,78.76,1,0,0.03,0.11,-0.99,3.78,-4.2,-3.43,-90.66,55.0,-47.62,0.0,False,0.0,0.0,0.0,0.0
55660.0,55660.0,0.0,0.0,0.0,78.76,1,0,0.03,0.11,-0.99,3.78,-4.2,-3.43,-90.66,55.0,-47.62,0.0,False,0.0,0.0,0.0,0.0
55660.0,55660.0,0.0,0.0,0.0,78.76,1,0,0.03,0.11,-0.99,3.78,-4.2,-3.43,-90.66,55.0,-47.62,0.0,False,0.0,0.0,0.0,0.0
55680.0,55680.0,0.0,0.0,0.0,78.76,1,0,0.03,0.1,-0.99,3.71,-3.78,-3.5,-90.66,55.0,-47.62,0.0,False,0.0,0.0,0.0,0.0
55680.0,55680.0,0.0,0.0,0.0,78.76,1,0,0.03,0.1,-0.99,3.71,-3.78,-3.5,-90.66,55.0,-47.62,0.0,False,0.0,0.0,0.0,0.0
55680.0,55680.0,0.0,0.0,0.0,78.76,1,0,0.03,0.1,-0.99,3.71,-3.78,-3.5,-90.66,55.0,-47.62,0.0,False,0.0,0.0,0.0,0.0
55680.0,55680.0,0.0,0.0,0.0,78.76,1,0,0.03,0.1,-0.99,3.71,-3.78,-3.5,-90.66,55.0,-47.62,0.0,False,0.0,0.0,0.0,0.0
55680.0,55680.0,0.0,0.0,0.0,78.76,1,0,0.03,0.1,-0.99,3.71,-3.78,-3.5,-90.66,55.0,-47.62,0.0,False,0.0,0.0,0.0,0.0
55703.0,55703.0,0.0,0.0,0.0,78.76,1,0,0.03,0.1,-1.0,3.78,-3.99,-3.64,-90.66,55.0,-47.62,0.0,False,0.0,0.0,0.0,0.0
55703.0,55703.0,0.0,0.0,0.0,78.76,1,0,0.03,0.1,-1.0,3.78,-3.99,-3.64,-90.66,55.0,-47.62,0.0,False,0.0,0.0,0.0,0.0
55703.0,55703.0,0.0,0.0,0.0,78.76,1,0,0.03,0.1,-1.0,3.78,-3.99,-3.64,-90.66,55.0,-47.62,0.0,False,0.0,0.0,0.0,0.0
55703.0,55703.0,0.0,0.0,0.0,78.76,1,0,0.03,0.1,-1.0,3.78,-3.99,-3.64,-90.66,55.0,-47.62,0.0,False,0.0,0.0,0.0,0.0
55703.0,55703.0,0.0,0.0,0.0,78.76,1,0,0.03,0.1,-1.0,3.78,-3.99,-3.64,-90.66,55.0,-47.62,0.0,False,0.0,0.0,0.0,0.0
55726.0,55726.0,0.0,0.0,0.0,78.76,1,0,0.02,0.1,-1.0,3.64,-3.92,-3.43,-90.66,55.0,-47.62,0.0,False,0.0,0.0,0.0,0.0
55726.0,55726.0,0.0,0.0,0.0,78.76,1,0,0.02,0.1,-1.0,3.64,-3.92,-3.43,-90.66,55.0,-47.62,0.0,False,0.0,0.0,0.0,0.0
55726.0,55726.0,0.0,0.0,0.0,78.76,1,0,0.02,0.1,-1.0,3.64,-3.92,-3.43,-90.66,55.0,-47.62,0.0,False,0.0,0.0,0.0,0.0
55726.0,55726.0,0.0,0.0,0.0,78.76,1,0,0.02,0.1,-1.0,3.64,-3.92,-3.43,-90.66,55.0,-47.62,0.0,False,0.0,0.0,0.0,0.0
55726.0,55726.0,0.0,0.0,0.0,78.76,1,0,0.02,0.1,-1.0,3.64,-3.92,-3.43,-90.66,55.0,-47.62,0.0,False,0.0,0.0,0.0,0.0
55749.0,55749.0,0.0,0.0,0.0,78.99,1,0,0.03,0.1,-0.99,3.71,-4.06,-3.36,-90.12,54.18,-46.71,0.0,False,0.0,0.0,0.0,0.0
55749.0,55749.0,0.0,0.0,0.0,78.99,1,0,0.03,0.1,-0.99,3.71,-4.06,-3.36,-90.12,54.18,-46.71,0.0,False,0.0,0.0,0.0,0.0
55749.0,55749.0,0.0,0.0,0.0,78.99,1,0,0.03,0.1,-0.99,3.71,-4.06,-3.36,-90.12,54.18,-46.71,0.0,False,0.0,0.0,0.0,0.0
55749.0,55749.0,0.0,0.0,0.0,78.99,1,0,0.03,0.1,-0.99,3.71,-4.06,-3.36,-90.12,54.18,-46.71,0.0,False,0.0,0.0,0.0,0.0
55769.0,55769.0,0.0,0.0,0.0,78.99,1,0,0.03,0.1,-1.0,3.71,-4.13,-3.5,-90.12,54.18,-46.71,0.0,False,0.0,0.0,0.0,0.0
55769.0,55769.0,0.0,0.0,0.0,78.99,1,0,0.03,0.1,-1.0,3.71,-4.13,-3.5,-90.12,54.18,-46.71,0.0,False,0.0,0.0,0.0,0.0
55769.0,55769.0,0.0,0.0,0.0,78.99,1,0,0.03,0.1,-1.0,3.71,-4.13,-3.5,-90.12,54.18,-46.71,0.0,False,0.0,0.0,0.0,0.0
55769.0,55769.0,0.0,0.0,0.0,78.99,1,0,0.03,0.1,-1.0,3.71,-4.13,-3.5,-90.12,54.18,-46.71,0.0,False,0.0,0.0,0.0,0.0
55769.0,55769.0,0.0,0.0,0.0,78.99,1,0,0.03,0.1,-1.0,3.71,-4.13,-3.5,-90.12,54.18,-46.71,0.0,False,0.0,0.0,0.0,0.0
55791.0,55791.0,0.0,0.0,0.0,78.99,1,0,0.03,0.1,-1.0,3.92,-4.2,-3.57,-90.12,54.18,-46.71,0.0,False,0.0,0.0,0.0,0.0
55791.0,55791.0,0.0,0.0,0.0,78.99,1,0,0.03,0.1,-1.0,3.92,-4.2,-3.57,-90.12,54.18,-46.71,0.0,False,0.0,0.0,0.0,0.0
55791.0,55791.0,0.0,0.0,0.0,78.99,1,0,0.03,0.1,-1.0,3.92,-4.2,-3.57,-90.12,54.18,-46.71,0.0,False,0.0,0.0,0.0,0.0
55791.0,55791.0,0.0,0.0,0.0,78.99,1,0,0.03,0.1,-1.0,3.92,-4.2,-3.57,-90.12,54.18,-46.71,0.0,False,0.0,0.0,0.0,0.0
55791.0,55791.0,0.0,0.0,0.0,78.99,1,0,0.03,0.1,-1.0,3.92,-4.2,-3.57,-90.12,54.18,-46.71,0.0,False,0.0,0.0,0.0,0.0
55813.0,55813.0,0.0,0.0,0.0,78.99,1,0,0.03,0.11,-0.99,3.78,-3.99,-3.5,-90.12,54.18,-46.71,0.0,False,0.0,0.0,0.0,0.0
55813.0,55813.0,0.0,0.0,0.0,78.99,1,0,0.03,0.11,-0.99,3.78,-3.99,-3.5,-90.12,54.18,-46.71,0.0,False,0.0,0.0,0.0,0.0
55813.0,55813.0,0.0,0.0,0.0,78.99,1,0,0.03,0.11,-0.99,3.78,-3.99,-3.5,-90.12,54.18,-46.71,0.0,False,0.0,0.0,0.0,0.0
55813.0,55813.0,0.0,0.0,0.0,78.99,1,0,0.03,0.11,-0.99,3.78,-3.99,-3.5,-90.12,54.18,-46.71,0.0,False,0.0,0.0,0.0,0.0
55833.0,55833.0,0.0,0.0,0.0,78.79,1,0,0.03,0.1,-0.99,3.78,-4.34,-3.5,-90.31,54.71,-48.51,0.0,False,0.0,0.0,0.0,0.0
55833.0,55833.0,0.0,0.0,0.0,78.79,1,0,0.03,0.1,-0.99,3.78,-4.34,-3.5,-90.31,54.71,-48.51,0.0,False,0.0,0.0,0.0,0.0
55833.0,55833.0,0.0,0.0,0.0,78.79,1,0,0.03,0.1,-0.99,3.78,-4.34,-3.5,-90.31,54.71,-48.51,0.0,False,0.0,0.0,0.0,0.0
55833.0,55833.0,0.0,0.0,0.0,78.79,1,0,0.03,0.1,-0.99,3.78,-4.34,-3.5,-90.31,54.71,-48.51,0.0,False,0.0,0.0,0.0,0.0
55853.0,55853.0,0.0,0.0,0.0,78.79,1,0,0.03,0.1,-0.99,3.85,-4.06,-3.36,-90.31,54.71,-48.51,0.0,False,0.0,0.0,0.0,0.0
55853.0,55853.0,0.0,0.0,0.0,78.79,1,0,0.03,0.1,-0.99,3.85,-4.06,-3.36,-90.31,54.71,-48.51,0.0,False,0.0,0.0,0.0,0.0
55853.0,55853.0,0.0,0.0,0.0,78.79,1,0,0.03,0.1,-0.99,3.85,-4.06,-3.36,-90.31,54.71,-48.51,0.0,False,0.0,0.0,0.0,0.0
55853.0,55853.0,0.0,0.0,0.0,78.79,1,0,0.03,0.1,-0.99,3.85,-4.06,-3.36,-90.31,54.71,-48.51,0.0,False,0.0,0.0,0.0,0.0
55873.0,55873.0,0.0,0.0,0.0,78.79,1,0,0.03,0.1,-1.0,3.78,-4.2,-3.5,-90.31,54.71,-48.51,0.0,False,0.0,0.0,0.0,0.0
55873.0,55873.0,0.0,0.0,0.0,78.79,1,0,0.03,0.1,-1.0,3.78,-4.2,-3.5,-90.31,54.71,-48.51,0.0,False,0.0,0.0,0.0,0.0
55873.0,55873.0,0.0,0.0,0.0,78.79,1,0,0.03,0.1,-1.0,3.78,-4.2,-3.5,-90.31,54.71,-48.51,0.0,False,0.0,0.0,0.0,0.0
55873.0,55873.0,0.0,0.0,0.0,78.79,1,0,0.03,0.1,-1.0,3.78,-4.2,-3.5,-90.31,54.71,-48.51,0.0,False,0.0,0.0,0.0,0.0
55893.0,55893.0,0.0,0.0,0.0,78.79,1,0,0.03,0.1,-1.0,3.78,-4.27,-3.36,-90.31,54.71,-48.51,0.0,False,0.0,0.0,0.0,0.0
55893.0,55893.0,0.0,0.0,0.0,78.79,1,0,0.03,0.1,-1.0,3.78,-4.27,-3.36,-90.31,54.71,-48.51,0.0,False,0.0,0.0,0.0,0.0
55893.0,55893.0,0.0,0.0,0.0,78.79,1,0,0.03,0.1,-1.0,3.78,-4.27,-3.36,-90.31,54.71,-48.51,0.0,False,0.0,0.0,0.0,0.0
55893.0,55893.0,0.0,0.0,0.0,78.79,1,0,0.03,0.1,-1.0,3.78,-4.27,-3.36,-90.31,54.71,-48.51,0.0,False,0.0,0.0,0.0,0.0
55913.0,55913.0,0.0,0.0,0.0,78.79,1,0,0.02,0.1,-1.0,3.78,-4.06,-3.43,-90.31,54.71,-48.51,0.0,False,0.0,0.0,0.0,0.0
55913.0,55913.0,0.0,0.0,0.0,78.79,1,0,0.02,0.1,-1.0,3.78,-4.06,-3.43,-90.31,54.71,-48.51,0.0,False,0.0,0.0,0.0,0.0
55913.0,55913.0,0.0,0.0,0.0,78.79,1,0,0.02,0.1,-1.0,3.78,-4.06,-3.43,-90.31,54.71,-48.51,0.0,False,0.0,0.0,0.0,0.0
55913.0,55913.0,0.0,0.0,0.0,78.79,1,0,0.02,0.1,-1.0,3.78,-4.06,-3.43,-90.31,54.71,-48.51,0.0,False,0.0,0.0,0.0,0.0
55933.0,55933.0,0.0,0.0,0.0,78.68,1,0,0.03,0.1,-1.0,3.64,-4.13,-3.36,-90.11,54.82,-47.75,0.0,False,0.0,0.0,0.0,0.0
55933.0,55933.0,0.0,0.0,0.0,78.68,1,0,0.03,0.1,-1.0,3.64,-4.13,-3.36,-90.11,54.82,-47.75,0.0,False,0.0,0.0,0.0,0.0
55933.0,55933.0,0.0,0.0,0.0,78.68,1,0,0.03,0.1,-1.0,3.64,-4.13,-3.36,-90.11,54.82,-47.75,0.0,False,0.0,0.0,0.0,0.0
55933.0,55933.0,0.0,0.0,0.0,78.68,1,0,0.03,0.1,-1.0,3.64,-4.13,-3.36,-90.11,54.82,-47.75,0.0,False,0.0,0.0,0.0,0.0
55953.0,55953.0,0.0,0.0,0.0,78.68,1,0,0.03,0.1,-1.0,3.71,-3.99,-3.5,-90.11,54.82,-47.75,0.0,False,0.0,0.0,0.0,0.0
55953.0,55953.0,0.0,0.0,0.0,78.68,1,0,0.03,0.1,-1.0,3.71,-3.99,-3.5,-90.11,54.82,-47.75,0.0,False,0.0,0.0,0.0,0.0
55953.0,55953.0,0.0,0.0,0.0,78.68,1,0,0.03,0.1,-1.0,3.71,-3.99,-3.5,-90.11,54.82,-47.75,0.0,False,0.0,0.0,0.0,0.0
55953.0,55953.0,0.0,0.0,0.0,78.68,1,0,0.03,0.1,-1.0,3.71,-3.99,-3.5,-90.11,54.82,-47.75,0.0,False,0.0,0.0,0.0,0.0
55973.0,55973.0,0.0,0.0,0.0,78.68,1,0,0.03,0.1,-0.99,3.71,-4.13,-3.5,-90.11,54.82,-47.75,0.0,False,0.0,0.0,0.0,0.0
55973.0,55973.0,0.0,0.0,0.0,78.68,1,0,0.03,0.1,-0.99,3.71,-4.13,-3.5,-90.11,54.82,-47.75,0.0,False,0.0,0.0,0.0,0.0
55973.0,55973.0,0.0,0.0,0.0,78.68,1,0,0.03,0.1,-0.99,3.71,-4.13,-3.5,-90.11,54.82,-47.75,0.0,False,0.0,0.0,0.0,0.0
55973.0,55973.0,0.0,0.0,0.0,78.68,1,0,0.03,0.1,-0.99,3.71,-4.13,-3.5,-90.11,54.82,-47.75,0.0,False,0.0,0.0,0.0,0.0
55973.0,55973.0,0.0,0.0,0.0,78.68,1,0,0.03,0.1,-0.99,3.71,-4.13,-3.5,-90.11,54.82,-47.75,0.0,False,0.0,0.0,0.0,0.0
55996.0,55996.0,0.0,0.0,0.0,78.68,1,0,0.03,0.1,-0.99,3.64,-3.99,-3.64,-90.11,54.82,-47.75,0.0,False,0.0,0.0,0.0,0.0
55996.0,55996.0,0.0,0.0,0.0,78.68,1,0,0.03,0.1,-0.99,3.64,-3.99,-3.64,-90.11,54.82,-47.75,0.0,False,0.0,0.0,0.0,0.0
55996.0,55996.0,0.0,0.0,0.0,78.68,1,0,0.03,0.1,-0.99,3.64,-3.99,-3.64,-90.11,54.82,-47.75,0.0,False,0.0,0.0,0.0,0.0
55996.0,55996.0,0.0,0.0,0.0,78.68,1,0,0.03,0.1,-0.99,3.64,-3.99,-3.64,-90.11,54.82,-47.75,0.0,False,0.0,0.0,0.0,0.0
55996.0,55996.0,0.0,0.0,0.0,78.68,1,0,0.03,0.1,-0.99,3.64,-3.99,-3.64,-90.11,54.82,-47.75,0.0,False,0.0,0.0,0.0,0.0
56019.0,56019.0,0.0,0.0,0.0,78.68,1,0,0.03,0.1,-1.0,3.78,-3.99,-3.43,-90.11,54.82,-47.75,0.0,False,0.0,0.0,0.0,0.0
56019.0,56019.0,0.0,0.0,0.0,78.68,1,0,0.03,0.1,-1.0,3.78,-3.99,-3.43,-90.11,54.82,-47.75,0.0,False,0.0,0.0,0.0,0.0
56019.0,56019.0,0.0,0.0,0.0,78.68,1,0,0.03,0.1,-1.0,3.78,-3.99,-3.43,-90.11,54.82,-47.75,0.0,False,0.0,0.0,0.0,0.0
56019.0,56019.0,0.0,0.0,0.0,78.68,1,0,0.03,0.1,-1.0,3.78,-3.99,-3.43,-90.11,54.82,-47.75,0.0,False,0.0,0.0,0.0,0.0
56019.0,56019.0,0.0,0.0,0.0,78.68,1,0,0.03,0.1,-1.0,3.78,-3.99,-3.43,-90.11,54.82,-47.75,0.0,False,0.0,0.0,0.0,0.0
56042.0,56042.0,0.0,0.0,0.0,78.71,1,0,0.03,0.1,-1.12,3.78,-4.06,-3.36,-90.46,54.98,-46.26,0.0,False,0.0,0.0,0.0,0.0
56042.0,56042.0,0.0,0.0,0.0,78.71,1,0,0.03,0.1,-1.12,3.78,-4.06,-3.36,-90.46,54.98,-46.26,0.0,False,0.0,0.0,0.0,0.0
56042.0,56042.0,0.0,0.0,0.0,78.71,1,0,0.03,0.1,-1.12,3.78,-4.06,-3.36,-90.46,54.98,-46.26,0.0,False,0.0,0.0,0.0,0.0
56042.0,56042.0,0.0,0.0,0.0,78.71,1,0,0.03,0.1,-1.12,3.78,-4.06,-3.36,-90.46,54.98,-46.26,0.0,False,0.0,0.0,0.0,0.0
56062.0,56062.0,0.0,0.0,0.0,78.71,1,0,0.03,0.1,-0.99,3.78,-4.2,-3.64,-90.46,54.98,-46.26,0.0,False,0.0,0.0,0.0,0.0
56062.0,56062.0,0.0,0.0,0.0,78.71,1,0,0.03,0.1,-0.99,3.78,-4.2,-3.64,-90.46,54.98,-46.26,0.0,False,0.0,0.0,0.0,0.0
56062.0,56062.0,0.0,0.0,0.0,78.71,1,0,0.03,0.1,-0.99,3.78,-4.2,-3.64,-90.46,54.98,-46.26,0.0,False,0.0,0.0,0.0,0.0
56062.0,56062.0,0.0,0.0,0.0,78.71,1,0,0.03,0.1,-0.99,3.78,-4.2,-3.64,-90.46,54.98,-46.26,0.0,False,0.0,0.0,0.0,0.0
56062.0,56062.0,0.0,0.0,0.0,78.71,1,0,0.03,0.1,-0.99,3.78,-4.2,-3.64,-90.46,54.98,-46.26,0.0,False,0.0,0.0,0.0,0.0
56084.0,56084.0,0.0,0.0,0.0,78.71,1,0,0.03,0.1,-1.0,3.85,-3.85,-3.64,-90.46,54.98,-46.26,0.0,False,0.0,0.0,0.0,0.0
56084.0,56084.0,0.0,0.0,0.0,78.71,1,0,0.03,0.1,-1.0,3.85,-3.85,-3.64,-90.46,54.98,-46.26,0.0,False,0.0,0.0,0.0,0.0
56084.0,56084.0,0.0,0.0,0.0,78.71,1,0,0.03,0.1,-1.0,3.85,-3.85,-3.64,-90.46,54.98,-46.26,0.0,False,0.0,0.0,0.0,0.0
56084.0,56084.0,0.0,0.0,0.0,78.71,1,0,0.03,0.1,-1.0,3.85,-3.85,-3.64,-90.46,54.98,-46.26,0.0,False,0.0,0.0,0.0,0.0
56104.0,56104.0,0.0,0.0,0.0,78.71,1,0,0.03,0.1,-0.99,3.71,-3.99,-3.5,-90.46,54.98,-46.26,0.0,False,0.0,0.0,0.0,0.0
56104.0,56104.0,0.0,0.0,0.0,78.71,1,0,0.03,0.1,-0.99,3.71,-3.99,-3.5,-90.46,54.98,-46.26,0.0,False,0.0,0.0,0.0,0.0
56104.0,56104.0,0.0,0.0,0.0,78.71,1,0,0.03,0.1,-0.99,3.71,-3.99,-3.5,-90.46,54.98,-46.26,0.0,False,0.0,0.0,0.0,0.0
56104.0,56104.0,0.0,0.0,0.0,78.71,1,0,0.03,0.1,-0.99,3.71,-3.99,-3.5,-90.46,54.98,-46.26,0.0,False,0.0,0.0,0.0,0.0
56124.0,56124.0,0.0,0.0,0.0,78.71,1,0,0.03,0.1,-0.99,3.85,-4.34,-3.57,-90.3,54.41,-47.57,0.0,False,0.0,0.0,0.0,0.0
56124.0,56124.0,0.0,0.0,0.0,78.71,1,0,0.03,0.1,-0.99,3.85,-4.34,-3.57,-90.3,54.41,-47.57,0.0,False,0.0,0.0,0.0,0.0
56124.0,56124.0,0.0,0.0,0.0,78.71,1,0,0.03,0.1,-0.99,3.85,-4.34,-3.57,-90.3,54.41,-47.57,0.0,False,0.0,0.0,0.0,0.0
56124.0,56124.0,0.0,0.0,0.0,78.71,1,0,0.03,0.1,-0.99,3.85,-4.34,-3.57,-90.3,54.41,-47.57,0.0,False,0.0,0.0,0.0,0.0
56144.0,56144.0,0.0,0.0,0.0,78.93,1,0,0.03,0.1,-0.99,3.71,-4.27,-3.57,-90.3,54.41,-47.57,0.0,False,0.0,0.0,0.0,0.0
56144.0,56144.0,0.0,0.0,0.0,78.93,1,0,0.03,0.1,-0.99,3.71,-4.27,-3.57,-90.3,54.41,-47.57,0.0,False,0.0,0.0,0.0,0.0
56144.0,56144.0,0.0,0.0,0.0,78.93,1,0,0.03,0.1,-0.99,3.71,-4.27,-3.57,-90.3,54.41,-47.57,0.0,False,0.0,0.0,0.0,0.0
56144.0,56144.0,0.0,0.0,0.0,78.93,1,0,0.03,0.1,-0.99,3.71,-4.27,-3.57,-90.3,54.41,-47.57,0.0,False,0.0,0.0,0.0,0.0
56164.0,56164.0,0.0,0.0,0.0,78.93,1,0,0.03,0.1,-1.0,3.92,-3.99,-3.5,-90.3,54.41,-47.57,0.0,False,0.0,0.0,0.0,0.0
56164.0,56164.0,0.0,0.0,0.0,78.93,1,0,0.03,0.1,-1.0,3.92,-3.99,-3.5,-90.3,54.41,-47.57,0.0,False,0.0,0.0,0.0,0.0
56164.0,56164.0,0.0,0.0,0.0,78.93,1,0,0.03,0.1,-1.0,3.92,-3.99,-3.5,-90.3,54.41,-47.57,0.0,False,0.0,0.0,0.0,0.0
56164.0,56164.0,0.0,0.0,0.0,78.93,1,0,0.03,0.1,-1.0,3.92,-3.99,-3.5,-90.3,54.41,-47.57,0.0,False,0.0,0.0,0.0,0.0
56184.0,56184.0,0.0,0.0,0.0,78.93,1,0,0.03,0.11,-1.0,3.78,-4.06,-3.57,-90.3,54.41,-47.57,0.0,False,0.0,0.0,0.0,0.0
56184.0,56184.0,0.0,0.0,0.0,78.93,1,0,0.03,0.11,-1.0,3.78,-4.06,-3.57,-90.3,54.41,-47.57,0.0,False,0.0,0.0,0.0,0.0
56184.0,56184.0,0.0,0.0,0.0,78.93,1,0,0.03,0.11,-1.0,3.78,-4.06,-3.57,-90.3,54.41,-47.57,0.0,False,0.0,0.0,0.0,0.0
56184.0,56184.0,0.0,0.0,0.0,78.93,1,0,0.03,0.11,-1.0,3.78,-4.06,-3.57,-90.3,54.41,-47.57,0.0,False,0.0,0.0,0.0,0.0
56184.0,56184.0,0.0,0.0,0.0,78.93,1,0,0.03,0.11,-1.0,3.78,-4.06,-3.57,-90.3,54.41,-47.57,0.0,False,0.0,0.0,0.0,0.0
56206.0,56206.0,0.0,0.0,0.0,78.93,1,0,0.03,0.1,-1.0,3.57,-4.06,-3.64,-90.3,54.41,-47.57,0.0,False,0.0,0.0,0.0,0.0
56206.0,56206.0,0.0,0.0,0.0,78.93,1,0,0.03,0.1,-1.0,3.57,-4.06,-3.64,-90.3,54.41,-47.57,0.0,False,0.0,0.0,0.0,0.0
56206.0,56206.0,0.0,0.0,0.0,78.93,1,0,0.03,0.1,-1.0,3.57,-4.06,-3.64,-90.3,54.41,-47.57,0.0,False,0.0,0.0,0.0,0.0
56206.0,56206.0,0.0,0.0,0.0,78.93,1,0,0.03,0.1,-1.0,3.57,-4.06,-3.64,-90.3,54.41,-47.57,0.0,False,0.0,0.0,0.0,0.0
56206.0,56206.0,0.0,0.0,0.0,78.93,1,0,0.03,0.1,-1.0,3.57,-4.06,-3.64,-90.3,54.41,-47.57,0.0,False,0.0,0.0,0.0,0.0
56228.0,56228.0,0.0,0.0,0.0,78.85,1,0,0.03,0.1,-1.0,3.92,-3.99,-3.43,-89.77,54.25,-47.18,0.0,False,0.0,0.0,0.0,0.0
56228.0,56228.0,0.0,0.0,0.0,78.85,1,0,0.03,0.1,-1.0,3.92,-3.99,-3.43,-89.77,54.25,-47.18,0.0,False,0.0,0.0,0.0,0.0
56228.0,56228.0,0.0,0.0,0.0,78.85,1,0,0.03,0.1,-1.0,3.92,-3.99,-3.43,-89.77,54.25,-47.18,0.0,False,0.0,0.0,0.0,0.0
56228.0,56228.0,0.0,0.0,0.0,78.85,1,0,0.03,0.1,-1.0,3.92,-3.99,-3.43,-89.77,54.25,-47.18,0.0,False,0.0,0.0,0.0,0.0
56248.0,56248.0,0.0,0.0,0.0,78.85,1,0,0.03,0.1,-1.0,3.78,-4.06,-3.64,-89.77,54.25,-47.18,0.0,False,0.0,0.0,0.0,0.0
56248.0,56248.0,0.0,0.0,0.0,78.85,1,0,0.03,0.1,-1.0,3.78,-4.06,-3.64,-89.77,54.25,-47.18,0.0,False,0.0,0.0,0.0,0.0
56248.0,56248.0,0.0,0.0,0.0,78.85,1,0,0.03,0.1,-1.0,3.78,-4.06,-3.64,-89.77,54.25,-47.18,0.0,False,0.0,0.0,0.0,0.0
56248.0,56248.0,0.0,0.0,0.0,78.85,1,0,0.03,0.1,-1.0,3.78,-4.06,-3.64,-89.77,54.25,-47.18,0.0,False,0.0,0.0,0.0,0.0
56268.0,56268.0,0.0,0.0,0.0,78.85,1,0,0.03,0.1,-0.99,3.92,-3.85,-3.5,-89.77,54.25,-47.18,0.0,False,0.0,0.0,0.0,0.0
56268.0,56268.0,0.0,0.0,0.0,78.85,1,0,0.03,0.1,-0.99,3.92,-3.85,-3.5,-89.77,54.25,-47.18,0.0,False,0.0,0.0,0.0,0.0
56268.0,56268.0,0.0,0.0,0.0,78.85,1,0,0.03,0.1,-0.99,3.92,-3.85,-3.5,-89.77,54.25,-47.18,0.0,False,0.0,0.0,0.0,0.0
56268.0,56268.0,0.0,0.0,0.0,78.85,1,0,0.03,0.1,-0.99,3.92,-3.85,-3.5,-89.77,54.25,-47.18,0.0,False,0.0,0.0,0.0,0.0
56288.0,56288.0,0.0,0.0,0.0,78.85,1,0,0.03,0.1,-0.99,3.64,-3.78,-3.36,-89.77,54.25,-47.18,0.0,False,0.0,0.0,0.0,0.0
56288.0,56288.0,0.0,0.0,0.0,78.85,1,0,0.03,0.1,-0.99,3.64,-3.78,-3.36,-89.77,54.25,-47.18,0.0,False,0.0,0.0,0.0,0.0
56288.0,56288.0,0.0,0.0,0.0,78.85,1,0,0.03,0.1,-0.99,3.64,-3.78,-3.36,-89.77,54.25,-47.18,0.0,False,0.0,0.0,0.0,0.0
56288.0,56288.0,0.0,0.0,0.0,78.85,1,0,0.03,0.1,-0.99,3.64,-3.78,-3.36,-89.77,54.25,-47.18,0.0,False,0.0,0.0,0.0,0.0
56308.0,56308.0,0.0,0.0,0.0,78.85,1,0,0.03,0.1,-1.0,3.78,-3.78,-3.64,-89.77,54.25,-47.18,0.0,False,0.0,0.0,0.0,0.0
56308.0,56308.0,0.0,0.0,0.0,78.85,1,0,0.03,0.1,-1.0,3.78,-3.78,-3.64,-89.77,54.25,-47.18,0.0,False,0.0,0.0,0.0,0.0
56308.0,56308.0,0.0,0.0,0.0,78.85,1,0,0.03,0.1,-1.0,3.78,-3.78,-3.64,-89.77,54.25,-47.18,0.0,False,0.0,0.0,0.0,0.0
56308.0,56308.0,0.0,0.0,0.0,78.85,1,0,0.03,0.1,-1.0,3.78,-3.78,-3.64,-89.77,54.25,-47.18,0.0,False,0.0,0.0,0.0,0.0
56308.0,56308.0,0.0,0.0,0.0,78.85,1,0,0.03,0.1,-1.0,3.78,-3.78,-3.64,-89.77,54.25,-47.18,0.0,False,0.0,0.0,0.0,0.0
56331.0,56331.0,0.0,0.0,0.0,78.83,1,0,0.02,0.1,-1.0,3.85,-4.06,-3.36,-90.51,54.75,-46.92,0.0,False,0.0,0.0,0.0,0.0
56331.0,56331.0,0.0,0.0,0.0,78.83,1,0,0.02,0.1,-1.0,3.85,-4.06,-3.36,-90.51,54.75,-46.92,0.0,False,0.0,0.0,0.0,0.0
56331.0,56331.0,0.0,0.0,0.0,78.83,1,0,0.02,0.1,-1.0,3.85,-4.06,-3.36,-90.51,54.75,-46.92,0.0,False,0.0,0.0,0.0,0.0
56331.0,56331.0,0.0,0.0,0.0,78.83,1,0,0.02,0.1,-1.0,3.85,-4.06,-3.36,-90.51,54.75,-46.92,0.0,False,0.0,0.0,0.0,0.0
56351.0,56351.0,0.0,0.0,0.0,78.83,1,0,0.03,0.1,-1.0,3.71,-4.06,-3.43,-90.51,54.75,-46.92,0.0,False,0.0,0.0,0.0,0.0
56351.0,56351.0,0.0,0.0,0.0,78.83,1,0,0.03,0.1,-1.0,3.71,-4.06,-3.43,-90.51,54.75,-46.92,0.0,False,0.0,0.0,0.0,0.0
56351.0,56351.0,0.0,0.0,0.0,78.83,1,0,0.03,0.1,-1.0,3.71,-4.06,-3.43,-90.51,54.75,-46.92,0.0,False,0.0,0.0,0.0,0.0
56351.0,56351.0,0.0,0.0,0.0,78.83,1,0,0.03,0.1,-1.0,3.71,-4.06,-3.43,-90.51,54.75,-46.92,0.0,False,0.0,0.0,0.0,0.0
56351.0,56351.0,0.0,0.0,0.0,78.83,1,0,0.03,0.1,-1.0,3.71,-4.06,-3.43,-90.51,54.75,-46.92,0.0,False,0.0,0.0,0.0,0.0
56374.0,56374.0,0.0,0.0,0.0,78.83,1,0,0.03,0.1,-0.99,3.64,-4.06,-3.29,-90.51,54.75,-46.92,0.0,False,0.0,0.0,0.0,0.0
56374.0,56374.0,0.0,0.0,0.0,78.83,1,0,0.03,0.1,-0.99,3.64,-4.06,-3.29,-90.51,54.75,-46.92,0.0,False,0.0,0.0,0.0,0.0
56374.0,56374.0,0.0,0.0,0.0,78.83,1,0,0.03,0.1,-0.99,3.64,-4.06,-3.29,-90.51,54.75,-46.92,0.0,False,0.0,0.0,0.0,0.0
56374.0,56374.0,0.0,0.0,0.0,78.83,1,0,0.03,0.1,-0.99,3.64,-4.06,-3.29,-90.51,54.75,-46.92,0.0,False,0.0,0.0,0.0,0.0
56374.0,56374.0,0.0,0.0,0.0,78.83,1,0,0.03,0.1,-0.99,3.64,-4.06,-3.29,-90.51,54.75,-46.92,0.0,False,0.0,0.0,0.0,0.0
56397.0,56397.0,0.0,0.0,0.0,78.83,1,0,0.03,0.1,-0.99,3.85,-4.2,-3.5,-90.51,54.75,-46.92,0.0,False,0.0,0.0,0.0,0.0
56397.0,56397.0,0.0,0.0,0.0,78.83,1,0,0.03,0.1,-0.99,3.85,-4.2,-3.5,-90.51,54.75,-46.92,0.0,False,0.0,0.0,0.0,0.0
56397.0,56397.0,0.0,0.0,0.0,78.83,1,0,0.03,0.1,-0.99,3.85,-4.2,-3.5,-90.51,54.75,-46.92,0.0,False,0.0,0.0,0.0,0.0
56397.0,56397.0,0.0,0.0,0.0,78.83,1,0,0.03,0.1,-0.99,3.85,-4.2,-3.5,-90.51,54.75,-46.92,0.0,False,0.0,0.0,0.0,0.0
56417.0,56417.0,0.0,0.0,0.0,78.83,1,0,0.03,0.1,-0.99,3.71,-3.92,-3.43,-90.51,54.75,-46.92,0.0,False,0.0,0.0,0.0,0.0
56417.0,56417.0,0.0,0.0,0.0,78.83,1,0,0.03,0.1,-0.99,3.71,-3.92,-3.43,-90.51,54.75,-46.92,0.0,False,0.0,0.0,0.0,0.0
56417.0,56417.0,0.0,0.0,0.0,78.83,1,0,0.03,0.1,-0.99,3.71,-3.92,-3.43,-90.51,54.75,-46.92,0.0,False,0.0,0.0,0.0,0.0
56417.0,56417.0,0.0,0.0,0.0,78.83,1,0,0.03,0.1,-0.99,3.71,-3.92,-3.43,-90.51,54.75,-46.92,0.0,False,0.0,0.0,0.0,0.0
56417.0,56417.0,0.0,0.0,0.0,78.83,1,0,0.03,0.1,-0.99,3.71,-3.92,-3.43,-90.51,54.75,-46.92,0.0,False,0.0,0.0,0.0,0.0
56440.0,56440.0,0.0,0.0,0.0,79.02,1,0,0.03,0.1,-0.99,3.78,-4.2,-3.36,-90.75,54.49,-47.3,0.0,False,0.0,0.0,0.0,0.0
56440.0,56440.0,0.0,0.0,0.0,79.02,1,0,0.03,0.1,-0.99,3.78,-4.2,-3.36,-90.75,54.49,-47.3,0.0,False,0.0,0.0,0.0,0.0
56440.0,56440.0,0.0,0.0,0.0,79.02,1,0,0.03,0.1,-0.99,3.78,-4.2,-3.36,-90.75,54.49,-47.3,0.0,False,0.0,0.0,0.0,0.0
56440.0,56440.0,0.0,0.0,0.0,79.02,1,0,0.03,0.1,-0.99,3.78,-4.2,-3.36,-90.75,54.49,-47.3,0.0,False,0.0,0.0,0.0,0.0
56440.0,56440.0,0.0,0.0,0.0,79.02,1,0,0.03,0.1,-0.99,3.78,-4.2,-3.36,-90.75,54.49,-47.3,0.0,False,0.0,0.0,0.0,0.0
56463.0,56463.0,0.0,0.0,0.0,79.02,1,0,0.02,0.1,-0.99,3.64,-3.78,-3.5,-90.75,54.49,-47.3,0.0,False,0.0,0.0,0.0,0.0
56463.0,56463.0,0.0,0.0,0.0,79.02,1,0,0.02,0.1,-0.99,3.64,-3.78,-3.5,-90.75,54.49,-47.3,0.0,False,0.0,0.0,0.0,0.0
56463.0,56463.0,0.0,0.0,0.0,79.02,1,0,0.02,0.1,-0.99,3.64,-3.78,-3.5,-90.75,54.49,-47.3,0.0,False,0.0,0.0,0.0,0.0
56463.0,56463.0,0.0,0.0,0.0,79.02,1,0,0.02,0.1,-0.99,3.64,-3.78,-3.5,-90.75,54.49,-47.3,0.0,False,0.0,0.0,0.0,0.0
56483.0,56483.0,0.0,0.0,0.0,79.02,1,0,0.03,0.1,-0.99,3.78,-3.99,-3.5,-90.75,54.49,-47.3,0.0,False,0.0,0.0,0.0,0.0
56483.0,56483.0,0.0,0.0,0.0,79.02,1,0,0.03,0.1,-0.99,3.78,-3.99,-3.5,-90.75,54.49,-47.3,0.0,False,0.0,0.0,0.0,0.0
56483.0,56483.0,0.0,0.0,0.0,79.02,1,0,0.03,0.1,-0.99,3.78,-3.99,-3.5,-90.75,54.49,-47.3,0.0,False,0.0,0.0,0.0,0.0
56483.0,56483.0,0.0,0.0,0.0,79.02,1,0,0.03,0.1,-0.99,3.78,-3.99,-3.5,-90.75,54.49,-47.3,0.0,False,0.0,0.0,0.0,0.0
56483.0,56483.0,0.0,0.0,0.0,79.02,1,0,0.03,0.1,-0.99,3.78,-3.99,-3.5,-90.75,54.49,-47.3,0.0,False,0.0,0.0,0.0,0.0
56506.0,56506.0,0.0,0.0,0.0,79.02,1,0,0.03,0.1,-1.0,3.71,-3.92,-3.43,-90.75,54.49,-47.3,0.0,False,0.0,0.0,0.0,0.0
56506.0,56506.0,0.0,0.0,0.0,79.02,1,0,0.03,0.1,-1.0,3.71,-3.92,-3.43,-90.75,54.49,-47.3,0.0,False,0.0,0.0,0.0,0.0
56506.0,56506.0,0.0,0.0,0.0,79.02,1,0,0.03,0.1,-1.0,3.71,-3.92,-3.43,-90.75,54.49,-47.3,0.0,False,0.0,0.0,0.0,0.0
56506.0,56506.0,0.0,0.0,0.0,79.02,1,0,0.03,0.1,-1.0,3.71,-3.92,-3.43,-90.75,54.49,-47.3,0.0,False,0.0,0.0,0.0,0.0
56506.0,56506.0,0.0,0.0,0.0,79.02,1,0,0.03,0.1,-1.0,3.71,-3.92,-3.43,-90.75,54.49,-47.3,0.0,False,0.0,0.0,0.0,0.0
56529.0,56529.0,0.0,0.0,0.0,78.66,1,0,0.02,0.1,-1.0,3.71,-4.13,-3.57,-90.21,54.94,-47.98,0.0,False,0.0,0.0,0.0,0.0
56529.0,56529.0,0.0,0.0,0.0,78.66,1,0,0.02,0.1,-1.0,3.71,-4.13,-3.57,-90.21,54.94,-47.98,0.0,False,0.0,0.0,0.0,0.0
56529.0,56529.0,0.0,0.0,0.0,78.66,1,0,0.02,0.1,-1.0,3.71,-4.13,-3.57,-90.21,54.94,-47.98,0.0,False,0.0,0.0,0.0,0.0
56529.0,56529.0,0.0,0.0,0.0,78.66,1,0,0.02,0.1,-1.0,3.71,-4.13,-3.57,-90.21,54.94,-47.98,0.0,False,0.0,0.0,0.0,0.0
56549.0,56549.0,0.0,0.0,0.0,78.66,1,0,0.03,0.1,-0.99,3.71,-3.99,-3.5,-90.21,54.94,-47.98,0.0,False,0.0,0.0,0.0,0.0
56549.0,56549.0,0.0,0.0,0.0,78.66,1,0,0.03,0.1,-0.99,3.71,-3.99,-3.5,-90.21,54.94,-47.98,0.0,False,0.0,0.0,0.0,0.0
56549.0,56549.0,0.0,0.0,0.0,78.66,1,0,0.03,0.1,-0.99,3.71,-3.99,-3.5,-90.21,54.94,-47.98,0.0,False,0.0,0.0,0.0,0.0
56549.0,56549.0,0.0,0.0,0.0,78.66,1,0,0.03,0.1,-0.99,3.71,-3.99,-3.5,-90.21,54.94,-47.98,0.0,False,0.0,0.0,0.0,0.0
56549.0,56549.0,0.0,0.0,0.0,78.66,1,0,0.03,0.1,-0.99,3.71,-3.99,-3.5,-90.21,54.94,-47.98,0.0,False,0.0,0.0,0.0,0.0
56572.0,56572.0,0.0,0.0,0.0,78.66,1,0,0.03,0.1,-1.0,3.57,-4.2,-3.5,-90.21,54.94,-47.98,0.0,False,0.0,0.0,0.0,0.0
56572.0,56572.0,0.0,0.0,0.0,78.66,1,0,0.03,0.1,-1.0,3.57,-4.2,-3.5,-90.21,54.94,-47.98,0.0,False,0.0,0.0,0.0,0.0
56572.0,56572.0,0.0,0.0,0.0,78.66,1,0,0.03,0.1,-1.0,3.57,-4.2,-3.5,-90.21,54.94,-47.98,0.0,False,0.0,0.0,0.0,0.0
56572.0,56572.0,0.0,0.0,0.0,78.66,1,0,0.03,0.1,-1.0,3.57,-4.2,-3.5,-90.21,54.94,-47.98,0.0,False,0.0,0.0,0.0,0.0
56572.0,56572.0,0.0,0.0,0.0,78.66,1,0,0.03,0.1,-1.0,3.57,-4.2,-3.5,-90.21,54.94,-47.98,0.0,False,0.0,0.0,0.0,0.0
56594.0,56594.0,0.0,0.0,0.0,78.66,1,0,0.02,0.1,-1.0,3.78,-4.27,-3.57,-90.21,54.94,-47.98,0.0,False,0.0,0.0,0.0,0.0
56594.0,56594.0,0.0,0.0,0.0,78.66,1,0,0.02,0.1,-1.0,3.78,-4.27,-3.57,-90.21,54.94,-47.98,0.0,False,0.0,0.0,0.0,0.0
56594.0,56594.0,0.0,0.0,0.0,78.66,1,0,0.02,0.1,-1.0,3.78,-4.27,-3.57,-90.21,54.94,-47.98,0.0,False,0.0,0.0,0.0,0.0
56594.0,56594.0,0.0,0.0,0.0,78.66,1,0,0.02,0.1,-1.0,3.78,-4.27,-3.57,-90.21,54.94,-47.98,0.0,False,0.0,0.0,0.0,0.0
56614.0,56614.0,0.0,0.0,0.0,78.66,1,0,0.02,0.1,-1.0,3.85,-3.99,-3.43,-90.21,54.94,-47.98,0.0,False,0.0,0.0,0.0,0.0
56614.0,56614.0,0.0,0.0,0.0,78.66,1,0,0.02,0.1,-1.0,3.85,-3.99,-3.43,-90.21,54.94,-47.98,0.0,False,0.0,0.0,0.0,0.0
56614.0,56614.0,0.0,0.0,0.0,78.66,1,0,0.02,0.1,-1.0,3.85,-3.99,-3.43,-90.21,54.94,-47.98,0.0,False,0.0,0.0,0.0,0.0
56614.0,56614.0,0.0,0.0,0.0,78.66,1,0,0.02,0.1,-1.0,3.85,-3.99,-3.43,-90.21,54.94,-47.98,0.0,False,0.0,0.0,0.0,0.0
56614.0,56614.0,0.0,0.0,0.0,78.66,1,0,0.02,0.1,-1.0,3.85,-3.99,-3.43,-90.21,54.94,-47.98,0.0,False,0.0,0.0,0.0,0.0
56636.0,56636.0,0.0,0.0,0.0,79.04,1,0,0.03,0.1,-1.0,3.78,-4.06,-3.57,-90.13,54.06,-46.55,0.0,False,0.0,0.0,0.0,0.0
56636.0,56636.0,0.0,0.0,0.0,79.04,1,0,0.03,0.1,-1.0,3.78,-4.06,-3.57,-90.13,54.06,-46.55,0.0,False,0.0,0.0,0.0,0.0
56636.0,56636.0,0.0,0.0,0.0,79.04,1,0,0.03,0.1,-1.0,3.78,-4.06,-3.57,-90.13,54.06,-46.55,0.0,False,0.0,0.0,0.0,0.0
56636.0,56636.0,0.0,0.0,0.0,79.04,1,0,0.03,0.1,-1.0,3.78,-4.06,-3.57,-90.13,54.06,-46.55,0.0,False,0.0,0.0,0.0,0.0
56636.0,56636.0,0.0,0.0,0.0,79.04,1,0,0.03,0.1,-1.0,3.78,-4.06,-3.57,-90.13,54.06,-46.55,0.0,False,0.0,0.0,0.0,0.0
56658.0,56658.0,0.0,0.0,0.0,79.04,1,0,0.03,0.1,-1.0,3.92,-3.92,-3.43,-90.13,54.06,-46.55,0.0,False,0.0,0.0,0.0,0.0
56658.0,56658.0,0.0,0.0,0.0,79.04,1,0,0.03,0.1,-1.0,3.92,-3.92,-3.43,-90.13,54.06,-46.55,0.0,False,0.0,0.0,0.0,0.0
56658.0,56658.0,0.0,0.0,0.0,79.04,1,0,0.03,0.1,-1.0,3.92,-3.92,-3.43,-90.13,54.06,-46.55,0.0,False,0.0,0.0,0.0,0.0
56658.0,56658.0,0.0,0.0,0.0,79.04,1,0,0.03,0.1,-1.0,3.92,-3.92,-3.43,-90.13,54.06,-46.55,0.0,False,0.0,0.0,0.0,0.0
56678.0,56678.0,0.0,0.0,0.0,79.04,1,0,0.03,0.1,-1.0,3.78,-3.99,-3.36,-90.13,54.06,-46.55,0.0,False,0.0,0.0,0.0,0.0
56678.0,56678.0,0.0,0.0,0.0,79.04,1,0,0.03,0.1,-1.0,3.78,-3.99,-3.36,-90.13,54.06,-46.55,0.0,False,0.0,0.0,0.0,0.0
56678.0,56678.0,0.0,0.0,0.0,79.04,1,0,0.03,0.1,-1.0,3.78,-3.99,-3.36,-90.13,54.06,-46.55,0.0,False,0.0,0.0,0.0,0.0
56678.0,56678.0,0.0,0.0,0.0,79.04,1,0,0.03,0.1,-1.0,3.78,-3.99,-3.36,-90.13,54.06,-46.55,0.0,False,0.0,0.0,0.0,0.0
56698.0,56698.0,0.0,0.0,0.0,79.04,1,0,0.03,0.1,-1.0,3.71,-3.85,-3.57,-90.13,54.06,-46.55,0.0,False,0.0,0.0,0.0,0.0
56698.0,56698.0,0.0,0.0,0.0,79.04,1,0,0.03,0.1,-1.0,3.71,-3.85,-3.57,-90.13,54.06,-46.55,0.0,False,0.0,0.0,0.0,0.0
56698.0,56698.0,0.0,0.0,0.0,79.04,1,0,0.03,0.1,-1.0,3.71,-3.85,-3.57,-90.13,54.06,-46.55,0.0,False,0.0,0.0,0.0,0.0
56698.0,56698.0,0.0,0.0,0.0,79.04,1,0,0.03,0.1,-1.0,3.71,-3.85,-3.57,-90.13,54.06,-46.55,0.0,False,0.0,0.0,0.0,0.0
56718.0,56718.0,0.0,0.0,0.0,79.04,1,0,0.03,0.1,-0.99,3.92,-4.13,-3.36,-90.57,54.41,-47.59,0.0,False,0.0,0.0,0.0,0.0
56718.0,56718.0,0.0,0.0,0.0,79.04,1,0,0.03,0.1,-0.99,3.92,-4.13,-3.36,-90.57,54.41,-47.59,0.0,False,0.0,0.0,0.0,0.0
56718.0,56718.0,0.0,0.0,0.0,79.04,1,0,0.03,0.1,-0.99,3.92,-4.13,-3.36,-90.57,54.41,-47.59,0.0,False,0.0,0.0,0.0,0.0
56718.0,56718.0,0.0,0.0,0.0,79.04,1,0,0.03,0.1,-0.99,3.92,-4.13,-3.36,-90.57,54.41,-47.59,0.0,False,0.0,0.0,0.0,0.0
56718.0,56718.0,0.0,0.0,0.0,79.04,1,0,0.03,0.1,-0.99,3.92,-4.13,-3.36,-90.57,54.41,-47.59,0.0,False,0.0,0.0,0.0,0.0
56741.0,56741.0,0.0,0.0,0.0,79.0,1,0,0.03,0.1,-1.0,3.85,-3.85,-3.22,-90.57,54.41,-47.59,0.0,False,0.0,0.0,0.0,0.0
56741.0,56741.0,0.0,0.0,0.0,79.0,1,0,0.03,0.1,-1.0,3.85,-3.85,-3.22,-90.57,54.41,-47.59,0.0,False,0.0,0.0,0.0,0.0
56741.0,56741.0,0.0,0.0,0.0,79.0,1,0,0.03,0.1,-1.0,3.85,-3.85,-3.22,-90.57,54.41,-47.59,0.0,False,0.0,0.0,0.0,0.0
56741.0,56741.0,0.0,0.0,0.0,79.0,1,0,0.03,0.1,-1.0,3.85,-3.85,-3.22,-90.57,54.41,-47.59,0.0,False,0.0,0.0,0.0,0.0
56761.0,56761.0,0.0,0.0,0.0,79.0,1,0,0.03,0.1,-1.0,3.99,-4.2,-3.57,-90.57,54.41,-47.59,0.0,False,0.0,0.0,0.0,0.0
56761.0,56761.0,0.0,0.0,0.0,79.0,1,0,0.03,0.1,-1.0,3.99,-4.2,-3.57,-90.57,54.41,-47.59,0.0,False,0.0,0.0,0.0,0.0
56761.0,56761.0,0.0,0.0,0.0,79.0,1,0,0.03,0.1,-1.0,3.99,-4.2,-3.57,-90.57,54.41,-47.59,0.0,False,0.0,0.0,0.0,0.0
56761.0,56761.0,0.0,0.0,0.0,79.0,1,0,0.03,0.1,-1.0,3.99,-4.2,-3.57,-90.57,54.41,-47.59,0.0,False,0.0,0.0,0.0,0.0
56761.0,56761.0,0.0,0.0,0.0,79.0,1,0,0.03,0.1,-1.0,3.99,-4.2,-3.57,-90.57,54.41,-47.59,0.0,False,0.0,0.0,0.0,0.0
56783.0,56783.0,0.0,0.0,0.0,79.0,1,0,0.03,0.1,-1.0,3.85,-4.34,-3.36,-90.57,54.41,-47.59,0.0,False,0.0,0.0,0.0,0.0
56783.0,56783.0,0.0,0.0,0.0,79.0,1,0,0.03,0.1,-1.0,3.85,-4.34,-3.36,-90.57,54.41,-47.59,0.0,False,0.0,0.0,0.0,0.0
56783.0,56783.0,0.0,0.0,0.0,79.0,1,0,0.03,0.1,-1.0,3.85,-4.34,-3.36,-90.57,54.41,-47.59,0.0,False,0.0,0.0,0.0,0.0
56783.0,56783.0,0.0,0.0,0.0,79.0,1,0,0.03,0.1,-1.0,3.85,-4.34,-3.36,-90.57,54.41,-47.59,0.0,False,0.0,0.0,0.0,0.0
56803.0,56803.0,0.0,0.0,0.0,79.0,1,0,0.03,0.1,-0.99,3.85,-4.06,-3.43,-90.57,54.41,-47.59,0.0,False,0.0,0.0,0.0,0.0
56803.0,56803.0,0.0,0.0,0.0,79.0,1,0,0.03,0.1,-0.99,3.85,-4.06,-3.43,-90.57,54.41,-47.59,0.0,False,0.0,0.0,0.0,0.0
56803.0,56803.0,0.0,0.0,0.0,79.0,1,0,0.03,0.1,-0.99,3.85,-4.06,-3.43,-90.57,54.41,-47.59,0.0,False,0.0,0.0,0.0,0.0
56803.0,56803.0,0.0,0.0,0.0,79.0,1,0,0.03,0.1,-0.99,3.85,-4.06,-3.43,-90.57,54.41,-47.59,0.0,False,0.0,0.0,0.0,0.0
56823.0,56823.0,0.0,0.0,0.0,78.73,1,0,0.03,0.1,-0.99,3.64,-3.71,-3.64,-90.09,54.72,-46.97,0.0,False,0.0,0.0,0.0,0.0
56823.0,56823.0,0.0,0.0,0.0,78.73,1,0,0.03,0.1,-0.99,3.64,-3.71,-3.64,-90.09,54.72,-46.97,0.0,False,0.0,0.0,0.0,0.0
56823.0,56823.0,0.0,0.0,0.0,78.73,1,0,0.03,0.1,-0.99,3.64,-3.71,-3.64,-90.09,54.72,-46.97,0.0,False,0.0,0.0,0.0,0.0
56823.0,56823.0,0.0,0.0,0.0,78.73,1,0,0.03,0.1,-0.99,3.64,-3.71,-3.64,-90.09,54.72,-46.97,0.0,False,0.0,0.0,0.0,0.0
56843.0,56843.0,0.0,0.0,0.0,78.73,1,0,0.03,0.1,-1.0,3.85,-3.92,-3.43,-90.09,54.72,-46.97,0.0,False,0.0,0.0,0.0,0.0
56843.0,56843.0,0.0,0.0,0.0,78.73,1,0,0.03,0.1,-1.0,3.85,-3.92,-3.43,-90.09,54.72,-46.97,0.0,False,0.0,0.0,0.0,0.0
56843.0,56843.0,0.0,0.0,0.0,78.73,1,0,0.03,0.1,-1.0,3.85,-3.92,-3.43,-90.09,54.72,-46.97,0.0,False,0.0,0.0,0.0,0.0
56843.0,56843.0,0.0,0.0,0.0,78.73,1,0,0.03,0.1,-1.0,3.85,-3.92,-3.43,-90.09,54.72,-46.97,0.0,False,0.0,0.0,0.0,0.0
56863.0,56863.0,0.0,0.0,0.0,78.73,1,0,0.02,0.1,-1.0,3.85,-4.13,-3.43,-90.09,54.72,-46.97,0.0,False,0.0,0.0,0.0,0.0
56863.0,56863.0,0.0,0.0,0.0,78.73,1,0,0.02,0.1,-1.0,3.85,-4.13,-3.43,-90.09,54.72,-46.97,0.0,False,0.0,0.0,0.0,0.0
56863.0,56863.0,0.0,0.0,0.0,78.73,1,0,0.02,0.1,-1.0,3.85,-4.13,-3.43,-90.09,54.72,-46.97,0.0,False,0.0,0.0,0.0,0.0
56863.0,56863.0,0.0,0.0,0.0,78.73,1,0,0.02,0.1,-1.0,3.85,-4.13,-3.43,-90.09,54.72,-46.97,0.0,False,0.0,0.0,0.0,0.0
56883.0,56883.0,0.0,0.0,0.0,78.73,1,0,0.03,0.1,-1.0,3.78,-3.92,-3.57,-90.09,54.72,-46.97,0.0,False,0.0,0.0,0.0,0.0
56883.0,56883.0,0.0,0.0,0.0,78.73,1,0,0.03,0.1,-1.0,3.78,-3.92,-3.57,-90.09,54.72,-46.97,0.0,False,0.0,0.0,0.0,0.0
56883.0,56883.0,0.0,0.0,0.0,78.73,1,0,0.03,0.1,-1.0,3.78,-3.92,-3.57,-90.09,54.72,-46.97,0.0,False,0.0,0.0,0.0,0.0
56883.0,56883.0,0.0,0.0,0.0,78.73,1,0,0.03,0.1,-1.0,3.78,-3.92,-3.57,-90.09,54.72,-46.97,0.0,False,0.0,0.0,0.0,0.0
56883.0,56883.0,0.0,0.0,0.0,78.73,1,0,0.03,0.1,-1.0,3.78,-3.92,-3.57,-90.09,54.72,-46.97,0.0,False,0.0,0.0,0.0,0.0
56905.0,56905.0,0.0,0.0,0.0,78.73,1,0,0.03,0.1,-0.99,3.57,-3.99,-3.43,-90.09,54.72,-46.97,0.0,False,0.0,0.0,0.0,0.0
56905.0,56905.0,0.0,0.0,0.0,78.73,1,0,0.03,0.1,-0.99,3.57,-3.99,-3.43,-90.09,54.72,-46.97,0.0,False,0.0,0.0,0.0,0.0
56905.0,56905.0,0.0,0.0,0.0,78.73,1,0,0.03,0.1,-0.99,3.57,-3.99,-3.43,-90.09,54.72,-46.97,0.0,False,0.0,0.0,0.0,0.0
56905.0,56905.0,0.0,0.0,0.0,78.73,1,0,0.03,0.1,-0.99,3.57,-3.99,-3.43,-90.09,54.72,-46.97,0.0,False,0.0,0.0,0.0,0.0
56925.0,56925.0,0.0,0.0,0.0,78.79,1,0,0.03,0.1,-1.0,3.71,-3.99,-3.36,-90.38,54.75,-47.84,0.0,False,0.0,0.0,0.0,0.0
56925.0,56925.0,0.0,0.0,0.0,78.79,1,0,0.03,0.1,-1.0,3.71,-3.99,-3.36,-90.38,54.75,-47.84,0.0,False,0.0,0.0,0.0,0.0
56925.0,56925.0,0.0,0.0,0.0,78.79,1,0,0.03,0.1,-1.0,3.71,-3.99,-3.36,-90.38,54.75,-47.84,0.0,False,0.0,0.0,0.0,0.0
56925.0,56925.0,0.0,0.0,0.0,78.79,1,0,0.03,0.1,-1.0,3.71,-3.99,-3.36,-90.38,54.75,-47.84,0.0,False,0.0,0.0,0.0,0.0
56945.0,56945.0,0.0,0.0,0.0,78.79,1,0,0.03,0.1,-0.99,3.64,-3.92,-3.57,-90.38,54.75,-47.84,0.0,False,0.0,0.0,0.0,0.0
56945.0,56945.0,0.0,0.0,0.0,78.79,1,0,0.03,0.1,-0.99,3.64,-3.92,-3.57,-90.38,54.75,-47.84,0.0,False,0.0,0.0,0.0,0.0
56945.0,56945.0,0.0,0.0,0.0,78.79,1,0,0.03,0.1,-0.99,3.64,-3.92,-3.57,-90.38,54.75,-47.84,0.0,False,0.0,0.0,0.0,0.0
56945.0,56945.0,0.0,0.0,0.0,78.79,1,0,0.03,0.1,-0.99,3.64,-3.92,-3.57,-90.38,54.75,-47.84,0.0,False,0.0,0.0,0.0,0.0
56965.0,56965.0,0.0,0.0,0.0,78.79,1,0,0.03,0.1,-1.0,3.85,-3.99,-3.5,-90.38,54.75,-47.84,0.0,False,0.0,0.0,0.0,0.0
56965.0,56965.0,0.0,0.0,0.0,78.79,1,0,0.03,0.1,-1.0,3.85,-3.99,-3.5,-90.38,54.75,-47.84,0.0,False,0.0,0.0,0.0,0.0
56965.0,56965.0,0.0,0.0,0.0,78.79,1,0,0.03,0.1,-1.0,3.85,-3.99,-3.5,-90.38,54.75,-47.84,0.0,False,0.0,0.0,0.0,0.0
56965.0,56965.0,0.0,0.0,0.0,78.79,1,0,0.03,0.1,-1.0,3.85,-3.99,-3.5,-90.38,54.75,-47.84,0.0,False,0.0,0.0,0.0,0.0
56985.0,56985.0,0.0,0.0,0.0,78.79,1,0,0.03,0.1,-0.99,3.78,-4.27,-3.5,-90.38,54.75,-47.84,0.0,False,0.0,0.0,0.0,0.0
56985.0,56985.0,0.0,0.0,0.0,78.79,1,0,0.03,0.1,-0.99,3.78,-4.27,-3.5,-90.38,54.75,-47.84,0.0,False,0.0,0.0,0.0,0.0
56985.0,56985.0,0.0,0.0,0.0,78.79,1,0,0.03,0.1,-0.99,3.78,-4.27,-3.5,-90.38,54.75,-47.84,0.0,False,0.0,0.0,0.0,0.0
56985.0,56985.0,0.0,0.0,0.0,78.79,1,0,0.03,0.1,-0.99,3.78,-4.27,-3.5,-90.38,54.75,-47.84,0.0,False,0.0,0.0,0.0,0.0
57005.0,57005.0,0.0,0.0,0.0,78.79,1,0,0.02,0.1,-1.0,3.78,-3.99,-3.57,-90.38,54.75,-47.84,0.0,False,0.0,0.0,0.0,0.0
57005.0,57005.0,0.0,0.0,0.0,78.79,1,0,0.02,0.1,-1.0,3.78,-3.99,-3.57,-90.38,54.75,-47.84,0.0,False,0.0,0.0,0.0,0.0
57005.0,57005.0,0.0,0.0,0.0,78.79,1,0,0.02,0.1,-1.0,3.78,-3.99,-3.57,-90.38,54.75,-47.84,0.0,False,0.0,0.0,0.0,0.0
57005.0,57005.0,0.0,0.0,0.0,78.79,1,0,0.02,0.1,-1.0,3.78,-3.99,-3.57,-90.38,54.75,-47.84,0.0,False,0.0,0.0,0.0,0.0
57005.0,57005.0,0.0,0.0,0.0,78.79,1,0,0.02,0.1,-1.0,3.78,-3.99,-3.57,-90.38,54.75,-47.84,0.0,False,0.0,0.0,0.0,0.0
57027.0,57027.0,0.0,0.0,0.0,78.54,1,0,0.03,0.1,-1.0,3.78,-3.99,-3.57,-90.0,55.07,-47.02,0.0,False,0.0,0.0,0.0,0.0
57027.0,57027.0,0.0,0.0,0.0,78.54,1,0,0.03,0.1,-1.0,3.78,-3.99,-3.57,-90.0,55.07,-47.02,0.0,False,0.0,0.0,0.0,0.0
57027.0,57027.0,0.0,0.0,0.0,78.54,1,0,0.03,0.1,-1.0,3.78,-3.99,-3.57,-90.0,55.07,-47.02,0.0,False,0.0,0.0,0.0,0.0
57027.0,57027.0,0.0,0.0,0.0,78.54,1,0,0.03,0.1,-1.0,3.78,-3.99,-3.57,-90.0,55.07,-47.02,0.0,False,0.0,0.0,0.0,0.0
57047.0,57047.0,0.0,0.0,0.0,78.54,1,0,0.03,0.1,-1.0,3.57,-3.71,-3.5,-90.0,55.07,-47.02,0.0,False,0.0,0.0,0.0,0.0
57047.0,57047.0,0.0,0.0,0.0,78.54,1,0,0.03,0.1,-1.0,3.57,-3.71,-3.5,-90.0,55.07,-47.02,0.0,False,0.0,0.0,0.0,0.0
57047.0,57047.0,0.0,0.0,0.0,78.54,1,0,0.03,0.1,-1.0,3.57,-3.71,-3.5,-90.0,55.07,-47.02,0.0,False,0.0,0.0,0.0,0.0
57047.0,57047.0,0.0,0.0,0.0,78.54,1,0,0.03,0.1,-1.0,3.57,-3.71,-3.5,-90.0,55.07,-47.02,0.0,False,0.0,0.0,0.0,0.0
57047.0,57047.0,0.0,0.0,0.0,78.54,1,0,0.03,0.1,-1.0,3.57,-3.71,-3.5,-90.0,55.07,-47.02,0.0,False,0.0,0.0,0.0,0.0
57069.0,57069.0,0.0,0.0,0.0,78.54,1,0,0.03,0.1,-0.99,3.71,-4.06,-3.43,-90.0,55.07,-47.02,0.0,False,0.0,0.0,0.0,0.0
57069.0,57069.0,0.0,0.0,0.0,78.54,1,0,0.03,0.1,-0.99,3.71,-4.06,-3.43,-90.0,55.07,-47.02,0.0,False,0.0,0.0,0.0,0.0
57069.0,57069.0,0.0,0.0,0.0,78.54,1,0,0.03,0.1,-0.99,3.71,-4.06,-3.43,-90.0,55.07,-47.02,0.0,False,0.0,0.0,0.0,0.0
57069.0,57069.0,0.0,0.0,0.0,78.54,1,0,0.03,0.1,-0.99,3.71,-4.06,-3.43,-90.0,55.07,-47.02,0.0,False,0.0,0.0,0.0,0.0
57069.0,57069.0,0.0,0.0,0.0,78.54,1,0,0.03,0.1,-0.99,3.71,-4.06,-3.43,-90.0,55.07,-47.02,0.0,False,0.0,0.0,0.0,0.0
57091.0,57091.0,0.0,0.0,0.0,78.54,1,0,0.03,0.1,-0.99,3.78,-4.06,-3.5,-90.0,55.07,-47.02,0.0,False,0.0,0.0,0.0,0.0
57091.0,57091.0,0.0,0.0,0.0,78.54,1,0,0.03,0.1,-0.99,3.78,-4.06,-3.5,-90.0,55.07,-47.02,0.0,False,0.0,0.0,0.0,0.0
57091.0,57091.0,0.0,0.0,0.0,78.54,1,0,0.03,0.1,-0.99,3.78,-4.06,-3.5,-90.0,55.07,-47.02,0.0,False,0.0,0.0,0.0,0.0
57091.0,57091.0,0.0,0.0,0.0,78.54,1,0,0.03,0.1,-0.99,3.78,-4.06,-3.5,-90.0,55.07,-47.02,0.0,False,0.0,0.0,0.0,0.0
57111.0,57111.0,0.0,0.0,0.0,78.54,1,0,0.03,0.1,-0.99,3.64,-4.2,-3.43,-90.35,54.6,-48.22,0.0,False,0.0,0.0,0.0,0.0
57111.0,57111.0,0.0,0.0,0.0,78.54,1,0,0.03,0.1,-0.99,3.64,-4.2,-3.43,-90.35,54.6,-48.22,0.0,False,0.0,0.0,0.0,0.0
57111.0,57111.0,0.0,0.0,0.0,78.54,1,0,0.03,0.1,-0.99,3.64,-4.2,-3.43,-90.35,54.6,-48.22,0.0,False,0.0,0.0,0.0,0.0
57111.0,57111.0,0.0,0.0,0.0,78.54,1,0,0.03,0.1,-0.99,3.64,-4.2,-3.43,-90.35,54.6,-48.22,0.0,False,0.0,0.0,0.0,0.0
57131.0,57131.0,0.0,0.0,0.0,78.85,1,0,0.03,0.1,-1.0,3.71,-4.06,-3.5,-90.35,54.6,-48.22,0.0,False,0.0,0.0,0.0,0.0
57131.0,57131.0,0.0,0.0,0.0,78.85,1,0,0.03,0.1,-1.0,3.71,-4.06,-3.5,-90.35,54.6,-48.22,0.0,False,0.0,0.0,0.0,0.0
57131.0,57131.0,0.0,0.0,0.0,78.85,1,0,0.03,0.1,-1.0,3.71,-4.06,-3.5,-90.35,54.6,-48.22,0.0,False,0.0,0.0,0.0,0.0
57131.0,57131.0,0.0,0.0,0.0,78.85,1,0,0.03,0.1,-1.0,3.71,-4.06,-3.5,-90.35,54.6,-48.22,0.0,False,0.0,0.0,0.0,0.0
57151.0,57151.0,0.0,0.0,0.0,78.85,1,0,0.02,0.1,-0.99,3.71,-4.13,-3.43,-90.35,54.6,-48.22,0.0,False,0.0,0.0,0.0,0.0
57151.0,57151.0,0.0,0.0,0.0,78.85,1,0,0.02,0.1,-0.99,3.71,-4.13,-3.43,-90.35,54.6,-48.22,0.0,False,0.0,0.0,0.0,0.0
57151.0,57151.0,0.0,0.0,0.0,78.85,1,0,0.02,0.1,-0.99,3.71,-4.13,-3.43,-90.35,54.6,-48.22,0.0,False,0.0,0.0,0.0,0.0
57151.0,57151.0,0.0,0.0,0.0,78.85,1,0,0.02,0.1,-0.99,3.71,-4.13,-3.43,-90.35,54.6,-48.22,0.0,False,0.0,0.0,0.0,0.0
57171.0,57171.0,0.0,0.0,0.0,78.85,1,0,0.03,0.1,-1.0,3.78,-4.06,-3.43,-90.35,54.6,-48.22,0.0,False,0.0,0.0,0.0,0.0
57171.0,57171.0,0.0,0.0,0.0,78.85,1,0,0.03,0.1,-1.0,3.78,-4.06,-3.43,-90.35,54.6,-48.22,0.0,False,0.0,0.0,0.0,0.0
57171.0,57171.0,0.0,0.0,0.0,78.85,1,0,0.03,0.1,-1.0,3.78,-4.06,-3.43,-90.35,54.6,-48.22,0.0,False,0.0,0.0,0.0,0.0
57171.0,57171.0,0.0,0.0,0.0,78.85,1,0,0.03,0.1,-1.0,3.78,-4.06,-3.43,-90.35,54.6,-48.22,0.0,False,0.0,0.0,0.0,0.0
57191.0,57191.0,0.0,0.0,0.0,78.85,1,0,0.03,0.1,-1.0,3.71,-4.06,-3.36,-90.35,54.6,-48.22,0.0,False,0.0,0.0,0.0,0.0
57191.0,57191.0,0.0,0.0,0.0,78.85,1,0,0.03,0.1,-1.0,3.71,-4.06,-3.36,-90.35,54.6,-48.22,0.0,False,0.0,0.0,0.0,0.0
57191.0,57191.0,0.0,0.0,0.0,78.85,1,0,0.03,0.1,-1.0,3.71,-4.06,-3.36,-90.35,54.6,-48.22,0.0,False,0.0,0.0,0.0,0.0
57191.0,57191.0,0.0,0.0,0.0,78.85,1,0,0.03,0.1,-1.0,3.71,-4.06,-3.36,-90.35,54.6,-48.22,0.0,False,0.0,0.0,0.0,0.0
57211.0,57211.0,0.0,0.0,0.0,78.85,1,0,0.03,0.1,-1.0,3.71,-3.99,-3.29,-90.56,55.12,-47.5,0.0,False,0.0,0.0,0.0,0.0
57211.0,57211.0,0.0,0.0,0.0,78.85,1,0,0.03,0.1,-1.0,3.71,-3.99,-3.29,-90.56,55.12,-47.5,0.0,False,0.0,0.0,0.0,0.0
57211.0,57211.0,0.0,0.0,0.0,78.85,1,0,0.03,0.1,-1.0,3.71,-3.99,-3.29,-90.56,55.12,-47.5,0.0,False,0.0,0.0,0.0,0.0
57211.0,57211.0,0.0,0.0,0.0,78.85,1,0,0.03,0.1,-1.0,3.71,-3.99,-3.29,-90.56,55.12,-47.5,0.0,False,0.0,0.0,0.0,0.0
57211.0,57211.0,0.0,0.0,0.0,78.85,1,0,0.03,0.1,-1.0,3.71,-3.99,-3.29,-90.56,55.12,-47.5,0.0,False,0.0,0.0,0.0,0.0
57234.0,57234.0,0.0,0.0,0.0,78.67,1,0,0.03,0.1,-0.99,3.78,-4.06,-3.5,-90.56,55.12,-47.5,0.0,False,0.0,0.0,0.0,0.0
57234.0,57234.0,0.0,0.0,0.0,78.67,1,0,0.03,0.1,-0.99,3.78,-4.06,-3.5,-90.56,55.12,-47.5,0.0,False,0.0,0.0,0.0,0.0
57234.0,57234.0,0.0,0.0,0.0,78.67,1,0,0.03,0.1,-0.99,3.78,-4.06,-3.5,-90.56,55.12,-47.5,0.0,False,0.0,0.0,0.0,0.0
57234.0,57234.0,0.0,0.0,0.0,78.67,1,0,0.03,0.1,-0.99,3.78,-4.06,-3.5,-90.56,55.12,-47.5,0.0,False,0.0,0.0,0.0,0.0
57254.0,57254.0,0.0,0.0,0.0,78.67,1,0,0.03,0.1,-0.99,3.71,-3.92,-3.57,-90.56,55.12,-47.5,0.0,False,0.0,0.0,0.0,0.0
57254.0,57254.0,0.0,0.0,0.0,78.67,1,0,0.03,0.1,-0.99,3.71,-3.92,-3.57,-90.56,55.12,-47.5,0.0,False,0.0,0.0,0.0,0.0
57254.0,57254.0,0.0,0.0,0.0,78.67,1,0,0.03,0.1,-0.99,3.71,-3.92,-3.57,-90.56,55.12,-47.5,0.0,False,0.0,0.0,0.0,0.0
57254.0,57254.0,0.0,0.0,0.0,78.67,1,0,0.03,0.1,-0.99,3.71,-3.92,-3.57,-90.56,55.12,-47.5,0.0,False,0.0,0.0,0.0,0.0
57254.0,57254.0,0.0,0.0,0.0,78.67,1,0,0.03,0.1,-0.99,3.71,-3.92,-3.57,-90.56,55.12,-47.5,0.0,False,0.0,0.0,0.0,0.0
57277.0,57277.0,0.0,0.0,0.0,78.67,1,0,0.03,0.1,-1.0,3.71,-4.13,-3.36,-90.56,55.12,-47.5,0.0,False,0.0,0.0,0.0,0.0
57277.0,57277.0,0.0,0.0,0.0,78.67,1,0,0.03,0.1,-1.0,3.71,-4.13,-3.36,-90.56,55.12,-47.5,0.0,False,0.0,0.0,0.0,0.0
57277.0,57277.0,0.0,0.0,0.0,78.67,1,0,0.03,0.1,-1.0,3.71,-4.13,-3.36,-90.56,55.12,-47.5,0.0,False,0.0,0.0,0.0,0.0
57277.0,57277.0,0.0,0.0,0.0,78.67,1,0,0.03,0.1,-1.0,3.71,-4.13,-3.36,-90.56,55.12,-47.5,0.0,False,0.0,0.0,0.0,0.0
57277.0,57277.0,0.0,0.0,0.0,78.67,1,0,0.03,0.1,-1.0,3.71,-4.13,-3.36,-90.56,55.12,-47.5,0.0,False,0.0,0.0,0.0,0.0
57300.0,57300.0,0.0,0.0,0.0,78.67,1,0,0.03,0.1,-0.99,3.92,-4.13,-3.43,-90.56,55.12,-47.5,0.0,False,0.0,0.0,0.0,0.0
57300.0,57300.0,0.0,0.0,0.0,78.67,1,0,0.03,0.1,-0.99,3.92,-4.13,-3.43,-90.56,55.12,-47.5,0.0,False,0.0,0.0,0.0,0.0
57300.0,57300.0,0.0,0.0,0.0,78.67,1,0,0.03,0.1,-0.99,3.92,-4.13,-3.43,-90.56,55.12,-47.5,0.0,False,0.0,0.0,0.0,0.0
57300.0,57300.0,0.0,0.0,0.0,78.67,1,0,0.03,0.1,-0.99,3.92,-4.13,-3.43,-90.56,55.12,-47.5,0.0,False,0.0,0.0,0.0,0.0
57320.0,57320.0,0.0,0.0,0.0,78.68,1,0,0.03,0.1,-1.0,3.85,-3.99,-3.29,-89.83,54.66,-47.25,0.0,False,0.0,0.0,0.0,0.0
57320.0,57320.0,0.0,0.0,0.0,78.68,1,0,0.03,0.1,-1.0,3.85,-3.99,-3.29,-89.83,54.66,-47.25,0.0,False,0.0,0.0,0.0,0.0
57320.0,57320.0,0.0,0.0,0.0,78.68,1,0,0.03,0.1,-1.0,3.85,-3.99,-3.29,-89.83,54.66,-47.25,0.0,False,0.0,0.0,0.0,0.0
57320.0,57320.0,0.0,0.0,0.0,78.68,1,0,0.03,0.1,-1.0,3.85,-3.99,-3.29,-89.83,54.66,-47.25,0.0,False,0.0,0.0,0.0,0.0
57340.0,57340.0,0.0,0.0,0.0,78.68,1,0,0.02,0.11,-0.99,3.64,-3.99,-3.64,-89.83,54.66,-47.25,0.0,False,0.0,0.0,0.0,0.0
57340.0,57340.0,0.0,0.0,0.0,78.68,1,0,0.02,0.11,-0.99,3.64,-3.99,-3.64,-89.83,54.66,-47.25,0.0,False,0.0,0.0,0.0,0.0
57340.0,57340.0,0.0,0.0,0.0,78.68,1,0,0.02,0.11,-0.99,3.64,-3.99,-3.64,-89.83,54.66,-47.25,0.0,False,0.0,0.0,0.0,0.0
57340.0,57340.0,0.0,0.0,0.0,78.68,1,0,0.02,0.11,-0.99,3.64,-3.99,-3.64,-89.83,54.66,-47.25,0.0,False,0.0,0.0,0.0,0.0
57360.0,57360.0,0.0,0.0,0.0,78.68,1,0,0.03,0.1,-1.0,3.92,-4.06,-3.43,-89.83,54.66,-47.25,0.0,False,0.0,0.0,0.0,0.0
57360.0,57360.0,0.0,0.0,0.0,78.68,1,0,0.03,0.1,-1.0,3.92,-4.06,-3.43,-89.83,54.66,-47.25,0.0,False,0.0,0.0,0.0,0.0
57360.0,57360.0,0.0,0.0,0.0,78.68,1,0,0.03,0.1,-1.0,3.92,-4.06,-3.43,-89.83,54.66,-47.25,0.0,False,0.0,0.0,0.0,0.0
57360.0,57360.0,0.0,0.0,0.0,78.68,1,0,0.03,0.1,-1.0,3.92,-4.06,-3.43,-89.83,54.66,-47.25,0.0,False,0.0,0.0,0.0,0.0
57360.0,57360.0,0.0,0.0,0.0,78.68,1,0,0.03,0.1,-1.0,3.92,-4.06,-3.43,-89.83,54.66,-47.25,0.0,False,0.0,0.0,0.0,0.0
57382.0,57382.0,0.0,0.0,0.0,78.68,1,0,0.02,0.1,-1.0,3.78,-4.06,-3.5,-89.83,54.66,-47.25,0.0,False,0.0,0.0,0.0,0.0
57382.0,57382.0,0.0,0.0,0.0,78.68,1,0,0.02,0.1,-1.0,3.78,-4.06,-3.5,-89.83,54.66,-47.25,0.0,False,0.0,0.0,0.0,0.0
57382.0,57382.0,0.0,0.0,0.0,78.68,1,0,0.02,0.1,-1.0,3.78,-4.06,-3.5,-89.83,54.66,-47.25,0.0,False,0.0,0.0,0.0,0.0
57382.0,57382.0,0.0,0.0,0.0,78.68,1,0,0.02,0.1,-1.0,3.78,-4.06,-3.5,-89.83,54.66,-47.25,0.0,False,0.0,0.0,0.0,0.0
57402.0,57402.0,0.0,0.0,0.0,78.68,1,0,0.03,0.1,-1.0,3.92,-4.13,-3.57,-89.83,54.66,-47.25,0.0,False,0.0,0.0,0.0,0.0
57402.0,57402.0,0.0,0.0,0.0,78.68,1,0,0.03,0.1,-1.0,3.92,-4.13,-3.57,-89.83,54.66,-47.25,0.0,False,0.0,0.0,0.0,0.0
57402.0,57402.0,0.0,0.0,0.0,78.68,1,0,0.03,0.1,-1.0,3.92,-4.13,-3.57,-89.83,54.66,-47.25,0.0,False,0.0,0.0,0.0,0.0
57402.0,57402.0,0.0,0.0,0.0,78.68,1,0,0.03,0.1,-1.0,3.92,-4.13,-3.57,-89.83,54.66,-47.25,0.0,False,0.0,0.0,0.0,0.0
57422.0,57422.0,0.0,0.0,0.0,78.96,1,0,0.02,0.1,-0.99,3.85,-4.2,-3.5,-90.94,54.72,-46.21,0.0,False,0.0,0.0,0.0,0.0
57422.0,57422.0,0.0,0.0,0.0,78.96,1,0,0.02,0.1,-0.99,3.85,-4.2,-3.5,-90.94,54.72,-46.21,0.0,False,0.0,0.0,0.0,0.0
57422.0,57422.0,0.0,0.0,0.0,78.96,1,0,0.02,0.1,-0.99,3.85,-4.2,-3.5,-90.94,54.72,-46.21,0.0,False,0.0,0.0,0.0,0.0
57422.0,57422.0,0.0,0.0,0.0,78.96,1,0,0.02,0.1,-0.99,3.85,-4.2,-3.5,-90.94,54.72,-46.21,0.0,False,0.0,0.0,0.0,0.0
57442.0,57442.0,0.0,0.0,0.0,78.96,1,0,0.03,0.1,-0.99,3.64,-4.13,-3.36,-90.94,54.72,-46.21,0.0,False,0.0,0.0,0.0,0.0
57442.0,57442.0,0.0,0.0,0.0,78.96,1,0,0.03,0.1,-0.99,3.64,-4.13,-3.36,-90.94,54.72,-46.21,0.0,False,0.0,0.0,0.0,0.0
57442.0,57442.0,0.0,0.0,0.0,78.96,1,0,0.03,0.1,-0.99,3.64,-4.13,-3.36,-90.94,54.72,-46.21,0.0,False,0.0,0.0,0.0,0.0
57442.0,57442.0,0.0,0.0,0.0,78.96,1,0,0.03,0.1,-0.99,3.64,-4.13,-3.36,-90.94,54.72,-46.21,0.0,False,0.0,0.0,0.0,0.0
57442.0,57442.0,0.0,0.0,0.0,78.96,1,0,0.03,0.1,-0.99,3.64,-4.13,-3.36,-90.94,54.72,-46.21,0.0,False,0.0,0.0,0.0,0.0
57465.0,57465.0,0.0,0.0,0.0,78.96,1,0,0.03,0.1,-1.0,3.71,-4.2,-3.43,-90.94,54.72,-46.21,0.0,False,0.0,0.0,0.0,0.0
57465.0,57465.0,0.0,0.0,0.0,78.96,1,0,0.03,0.1,-1.0,3.71,-4.2,-3.43,-90.94,54.72,-46.21,0.0,False,0.0,0.0,0.0,0.0
57465.0,57465.0,0.0,0.0,0.0,78.96,1,0,0.03,0.1,-1.0,3.71,-4.2,-3.43,-90.94,54.72,-46.21,0.0,False,0.0,0.0,0.0,0.0
57465.0,57465.0,0.0,0.0,0.0,78.96,1,0,0.03,0.1,-1.0,3.71,-4.2,-3.43,-90.94,54.72,-46.21,0.0,False,0.0,0.0,0.0,0.0
57465.0,57465.0,0.0,0.0,0.0,78.96,1,0,0.03,0.1,-1.0,3.71,-4.2,-3.43,-90.94,54.72,-46.21,0.0,False,0.0,0.0,0.0,0.0
57487.0,57487.0,0.0,0.0,0.0,78.96,1,0,0.02,0.1,-1.0,3.78,-4.06,-3.5,-90.94,54.72,-46.21,0.0,False,0.0,0.0,0.0,0.0
57487.0,57487.0,0.0,0.0,0.0,78.96,1,0,0.02,0.1,-1.0,3.78,-4.06,-3.5,-90.94,54.72,-46.21,0.0,False,0.0,0.0,0.0,0.0
57487.0,57487.0,0.0,0.0,0.0,78.96,1,0,0.02,0.1,-1.0,3.78,-4.06,-3.5,-90.94,54.72,-46.21,0.0,False,0.0,0.0,0.0,0.0
57487.0,57487.0,0.0,0.0,0.0,78.96,1,0,0.02,0.1,-1.0,3.78,-4.06,-3.5,-90.94,54.72,-46.21,0.0,False,0.0,0.0,0.0,0.0
57507.0,57507.0,0.0,0.0,0.0,78.96,1,0,0.03,0.1,-0.99,3.71,-4.13,-3.57,-90.68,54.98,-47.46,0.0,False,0.0,0.0,0.0,0.0
57507.0,57507.0,0.0,0.0,0.0,78.96,1,0,0.03,0.1,-0.99,3.71,-4.13,-3.57,-90.68,54.98,-47.46,0.0,False,0.0,0.0,0.0,0.0
57507.0,57507.0,0.0,0.0,0.0,78.96,1,0,0.03,0.1,-0.99,3.71,-4.13,-3.57,-90.68,54.98,-47.46,0.0,False,0.0,0.0,0.0,0.0
57507.0,57507.0,0.0,0.0,0.0,78.96,1,0,0.03,0.1,-0.99,3.71,-4.13,-3.57,-90.68,54.98,-47.46,0.0,False,0.0,0.0,0.0,0.0
57507.0,57507.0,0.0,0.0,0.0,78.96,1,0,0.03,0.1,-0.99,3.71,-4.13,-3.57,-90.68,54.98,-47.46,0.0,False,0.0,0.0,0.0,0.0
57529.0,57529.0,0.0,0.0,0.0,78.77,1,0,0.03,0.1,-0.99,3.99,-4.13,-3.5,-90.68,54.98,-47.46,0.0,False,0.0,0.0,0.0,0.0
57529.0,57529.0,0.0,0.0,0.0,78.77,1,0,0.03,0.1,-0.99,3.99,-4.13,-3.5,-90.68,54.98,-47.46,0.0,False,0.0,0.0,0.0,0.0
57529.0,57529.0,0.0,0.0,0.0,78.77,1,0,0.03,0.1,-0.99,3.99,-4.13,-3.5,-90.68,54.98,-47.46,0.0,False,0.0,0.0,0.0,0.0
57529.0,57529.0,0.0,0.0,0.0,78.77,1,0,0.03,0.1,-0.99,3.99,-4.13,-3.5,-90.68,54.98,-47.46,0.0,False,0.0,0.0,0.0,0.0
57529.0,57529.0,0.0,0.0,0.0,78.77,1,0,0.03,0.1,-0.99,3.99,-4.13,-3.5,-90.68,54.98,-47.46,0.0,False,0.0,0.0,0.0,0.0
57551.0,57551.0,0.0,0.0,0.0,78.77,1,0,0.03,0.1,-1.0,3.78,-4.2,-3.36,-90.68,54.98,-47.46,0.0,False,0.0,0.0,0.0,0.0
57551.0,57551.0,0.0,0.0,0.0,78.77,1,0,0.03,0.1,-1.0,3.78,-4.2,-3.36,-90.68,54.98,-47.46,0.0,False,0.0,0.0,0.0,0.0
57551.0,57551.0,0.0,0.0,0.0,78.77,1,0,0.03,0.1,-1.0,3.78,-4.2,-3.36,-90.68,54.98,-47.46,0.0,False,0.0,0.0,0.0,0.0
57551.0,57551.0,0.0,0.0,0.0,78.77,1,0,0.03,0.1,-1.0,3.78,-4.2,-3.36,-90.68,54.98,-47.46,0.0,False,0.0,0.0,0.0,0.0
57571.0,57571.0,0.0,0.0,0.0,78.77,1,0,0.03,0.09,-0.99,3.57,-3.99,-3.57,-90.68,54.98,-47.46,0.0,False,0.0,0.0,0.0,0.0
57571.0,57571.0,0.0,0.0,0.0,78.77,1,0,0.03,0.09,-0.99,3.57,-3.99,-3.57,-90.68,54.98,-47.46,0.0,False,0.0,0.0,0.0,0.0
57571.0,57571.0,0.0,0.0,0.0,78.77,1,0,0.03,0.09,-0.99,3.57,-3.99,-3.57,-90.68,54.98,-47.46,0.0,False,0.0,0.0,0.0,0.0
57571.0,57571.0,0.0,0.0,0.0,78.77,1,0,0.03,0.09,-0.99,3.57,-3.99,-3.57,-90.68,54.98,-47.46,0.0,False,0.0,0.0,0.0,0.0
57591.0,57591.0,0.0,0.0,0.0,78.77,1,0,0.03,0.1,-1.0,3.78,-4.13,-3.43,-90.68,54.98,-47.46,0.0,False,0.0,0.0,0.0,0.0
